time,ax,ay,az,atotal
2.356,-0.01,-0.06,0.07,0.09
2.376,-0.04,-0.08,0.1,0.14
2.396,-0.02,-0.06,0.03,0.07
2.416,-0.0,0.06,-0.0,0.06
2.436,0.03,0.12,0.04,0.13
2.456,-0.01,0.08,0.13,0.15
2.476,-0.02,0.03,0.14,0.14
2.495,-0.03,0.03,0.07,0.08
2.515,-0.04,-0.02,0.01,0.05
2.535,-0.06,-0.02,-0.01,0.06
2.555,-0.04,0.06,-0.03,0.08
2.575,0.01,0.06,-0.01,0.07
2.595,0.04,-0.01,0.0,0.05
2.615,-0.0,-0.03,-0.05,0.06
2.635,-0.03,-0.04,-0.05,0.07
2.655,-0.03,0.02,-0.01,0.03
2.675,-0.02,0.04,-0.01,0.04
2.695,0.05,0.0,-0.03,0.05
2.715,0.06,-0.05,-0.03,0.09
2.735,0.03,-0.06,-0.02,0.07
2.755,0.0,-0.01,-0.03,0.03
2.775,-0.04,0.01,-0.04,0.06
2.795,-0.06,-0.01,-0.03,0.06
2.815,-0.03,-0.04,-0.0,0.05
2.835,-0.03,-0.02,-0.06,0.07
2.855,-0.01,0.0,-0.08,0.08
2.875,-0.03,0.04,-0.04,0.06
2.895,-0.06,0.04,0.01,0.07
2.915,-0.04,0.01,-0.01,0.04
2.935,-0.03,0.01,-0.07,0.07
2.955,-0.03,-0.07,-0.05,0.09
2.975,-0.01,-0.09,-0.07,0.11
2.995,-0.03,-0.03,-0.1,0.11
3.014,-0.07,-0.0,-0.09,0.11
3.035,-0.07,0.03,-0.07,0.1
3.054,-0.02,-0.0,0.02,0.03
3.074,-0.03,-0.02,0.06,0.07
3.094,-0.05,0.01,0.06,0.08
3.114,-0.06,-0.01,0.01,0.07
3.134,-0.08,-0.02,-0.01,0.08
3.154,-0.06,-0.01,0.01,0.06
3.174,-0.02,0.0,-0.0,0.02
3.194,0.01,-0.0,0.02,0.03
3.214,0.04,0.01,0.05,0.06
3.234,0.03,0.01,0.05,0.06
3.254,-0.02,0.0,0.03,0.04
3.274,-0.02,-0.02,0.01,0.03
3.294,-0.0,-0.03,0.04,0.05
3.314,0.02,-0.03,0.05,0.07
3.334,0.04,-0.06,0.01,0.07
3.354,0.03,-0.03,-0.02,0.05
3.374,0.03,-0.02,-0.0,0.04
3.394,0.05,-0.02,0.01,0.06
3.414,0.06,-0.02,0.01,0.06
3.434,0.05,-0.02,0.02,0.06
3.454,0.06,-0.01,0.04,0.07
3.474,0.07,0.0,0.03,0.07
3.494,0.09,0.0,0.02,0.1
3.514,0.07,-0.0,0.03,0.08
3.534,0.04,-0.01,0.01,0.04
3.554,0.03,-0.02,0.03,0.05
3.573,0.04,-0.03,0.04,0.07
3.594,0.06,-0.03,0.02,0.07
3.614,0.05,0.02,-0.02,0.06
3.633,0.06,0.04,-0.01,0.07
3.653,0.03,0.03,-0.0,0.04
3.673,0.02,0.01,-0.01,0.03
3.693,0.0,-0.02,-0.04,0.05
3.713,0.01,-0.04,-0.04,0.05
3.733,0.04,0.01,-0.0,0.04
3.753,0.08,-0.07,0.03,0.11
3.773,0.06,-0.03,-0.03,0.07
3.793,-0.01,-0.02,-0.03,0.04
3.813,-0.03,0.05,-0.07,0.1
3.833,0.01,0.07,0.01,0.07
3.853,0.06,0.02,0.04,0.08
3.873,0.08,-0.0,0.04,0.09
3.893,-0.01,-0.04,0.06,0.08
3.913,-0.09,-0.07,0.05,0.13
3.933,-0.12,-0.07,0.01,0.14
3.953,-0.07,0.0,-0.05,0.09
3.973,0.0,0.02,-0.07,0.07
3.993,0.07,0.01,-0.05,0.09
4.013,0.05,-0.03,-0.02,0.06
4.029,0.01,-0.02,0.0,0.02
4.049,-0.02,-0.02,-0.02,0.04
4.069,-0.07,0.01,0.0,0.07
4.089,-0.06,0.03,0.04,0.08
4.109,-0.01,0.03,0.02,0.04
4.129,-0.0,-0.02,-0.0,0.02
4.149,0.01,-0.03,-0.02,0.04
4.169,-0.0,-0.01,-0.03,0.03
4.189,-0.04,-0.02,-0.03,0.05
4.209,-0.02,-0.02,-0.03,0.04
4.229,0.03,-0.0,-0.01,0.03
4.249,0.06,-0.01,-0.02,0.06
4.268,0.04,-0.01,-0.02,0.05
4.288,-0.01,-0.01,-0.01,0.02
4.308,-0.06,-0.05,-0.0,0.08
4.328,-0.07,-0.04,0.03,0.08
4.348,-0.03,-0.0,0.06,0.06
4.368,0.01,-0.02,0.0,0.02
4.388,-0.0,0.01,-0.01,0.01
4.408,-0.0,0.01,0.02,0.02
4.428,-0.01,-0.02,0.0,0.02
4.448,-0.01,-0.02,-0.03,0.04
4.468,-0.02,-0.01,-0.02,0.03
4.488,-0.04,0.01,0.01,0.05
4.508,-0.03,0.02,0.01,0.04
4.528,-0.02,0.0,0.02,0.02
4.548,0.01,0.0,0.0,0.01
4.568,0.02,-0.02,-0.03,0.04
4.588,0.0,-0.01,-0.02,0.03
4.608,-0.06,-0.01,-0.03,0.07
4.628,-0.02,0.04,-0.07,0.09
4.648,0.03,0.02,0.01,0.03
4.668,0.04,-0.01,0.02,0.05
4.688,0.0,-0.02,-0.01,0.02
4.708,-0.07,-0.04,-0.01,0.08
4.728,-0.09,-0.06,-0.03,0.11
4.748,-0.05,-0.01,-0.08,0.09
4.768,-0.03,0.02,-0.08,0.09
4.788,-0.01,0.0,-0.06,0.06
4.808,0.01,0.0,-0.01,0.02
4.828,-0.01,-0.04,-0.01,0.05
4.848,-0.02,-0.05,-0.02,0.06
4.868,-0.07,-0.07,-0.03,0.11
4.888,-0.06,-0.02,0.02,0.07
4.907,-0.04,0.02,0.02,0.05
4.927,-0.01,-0.0,0.0,0.01
4.948,0.0,-0.01,-0.03,0.03
4.967,-0.01,-0.02,-0.0,0.02
4.987,-0.06,-0.02,0.02,0.07
5.007,-0.04,-0.01,0.05,0.07
5.027,0.01,0.0,0.07,0.07
5.047,0.03,0.0,0.06,0.07
5.067,0.0,-0.02,0.04,0.04
5.087,-0.01,-0.02,0.02,0.03
5.107,-0.03,0.01,0.05,0.06
5.127,-0.04,0.02,0.04,0.06
5.147,-0.03,-0.01,0.03,0.04
5.167,-0.02,-0.01,0.05,0.05
5.187,0.01,-0.01,0.07,0.08
5.207,0.01,-0.03,0.05,0.06
5.227,0.05,-0.02,-0.01,0.05
5.247,0.04,0.0,0.01,0.05
5.267,0.02,0.02,0.06,0.07
5.287,-0.0,0.01,0.01,0.02
5.307,-0.03,0.0,-0.01,0.03
5.327,-0.02,-0.01,-0.01,0.03
5.347,0.0,-0.07,-0.01,0.07
5.367,0.03,-0.04,-0.03,0.06
5.387,-0.02,-0.03,-0.05,0.06
5.407,-0.07,0.02,-0.03,0.07
5.427,-0.04,0.07,-0.04,0.09
5.447,0.03,-0.03,0.01,0.04
5.467,0.05,-0.02,0.02,0.05
5.487,-0.03,0.0,0.04,0.05
5.506,-0.08,-0.05,0.0,0.1
5.526,-0.09,-0.05,-0.04,0.11
5.546,-0.02,0.0,-0.06,0.07
5.566,0.01,0.02,-0.05,0.05
5.586,-0.0,0.02,0.0,0.02
5.606,-0.01,-0.03,0.02,0.04
5.626,-0.04,-0.02,0.02,0.05
5.646,-0.05,-0.02,0.01,0.05
5.666,-0.04,-0.04,0.03,0.06
5.686,-0.03,-0.0,-0.0,0.03
5.706,0.02,0.0,-0.03,0.04
5.726,0.03,-0.02,-0.02,0.04
5.746,0.03,-0.03,-0.01,0.04
5.766,0.0,-0.03,-0.02,0.03
5.786,-0.0,0.01,0.0,0.01
5.806,0.03,0.02,0.07,0.07
5.826,0.04,0.02,0.05,0.06
5.846,0.04,0.0,-0.02,0.04
5.866,0.0,-0.02,-0.04,0.04
5.886,-0.01,-0.01,-0.0,0.02
5.906,-0.01,-0.01,0.01,0.02
5.926,0.01,0.01,0.02,0.02
5.946,0.02,0.0,0.01,0.03
5.966,0.01,-0.02,0.01,0.03
5.986,0.02,-0.01,-0.01,0.03
6.006,0.03,0.0,-0.03,0.04
6.025,0.03,-0.02,-0.02,0.05
6.046,0.03,-0.01,0.0,0.03
6.065,0.01,0.0,-0.01,0.01
6.086,0.02,0.01,0.03,0.04
6.106,0.02,-0.01,0.03,0.03
6.125,-0.0,-0.04,-0.02,0.05
6.145,0.0,-0.04,-0.03,0.05
6.165,0.02,-0.02,-0.02,0.03
6.185,-0.02,-0.03,-0.02,0.04
6.205,-0.01,0.03,-0.07,0.08
6.225,-0.0,0.02,0.03,0.03
6.245,-0.0,-0.04,0.07,0.08
6.265,-0.01,-0.04,0.03,0.05
6.285,-0.04,-0.06,-0.01,0.08
6.305,-0.06,-0.06,-0.03,0.09
6.325,-0.05,0.01,-0.02,0.05
6.345,-0.01,0.04,-0.02,0.05
6.365,0.01,0.0,-0.01,0.01
6.385,-0.0,-0.01,0.03,0.03
6.405,-0.01,-0.05,0.01,0.05
6.425,-0.03,-0.04,-0.01,0.06
6.445,-0.05,-0.04,-0.01,0.07
6.465,-0.03,-0.01,0.01,0.03
6.485,-0.01,-0.01,0.01,0.01
6.505,-0.02,-0.01,-0.01,0.02
6.524,-0.04,-0.0,0.01,0.04
6.545,-0.03,-0.02,0.03,0.04
6.565,0.01,-0.0,0.03,0.03
6.584,-0.02,-0.02,0.03,0.04
6.605,-0.03,-0.03,0.01,0.04
6.624,-0.02,-0.03,0.01,0.04
6.644,-0.02,-0.0,0.04,0.04
6.664,0.02,0.01,0.04,0.05
6.684,0.06,-0.01,0.03,0.07
6.704,0.04,0.01,0.02,0.05
6.724,0.05,0.0,0.03,0.06
6.744,0.04,-0.02,0.03,0.06
6.764,0.05,-0.01,0.02,0.05
6.784,0.02,-0.02,0.01,0.03
6.804,0.04,0.02,0.0,0.05
6.824,0.07,0.01,-0.01,0.07
6.844,0.04,-0.01,-0.0,0.04
6.864,0.04,0.01,0.04,0.06
6.884,0.08,0.01,0.07,0.11
6.904,0.09,0.01,0.03,0.09
6.924,0.1,-0.06,0.01,0.12
6.944,0.11,-0.05,-0.01,0.13
6.964,0.06,-0.03,-0.01,0.07
6.984,0.02,-0.0,-0.01,0.02
7.004,-0.01,0.04,-0.04,0.06
7.024,0.03,-0.02,0.03,0.04
7.044,0.08,-0.03,0.06,0.1
7.064,0.05,-0.01,0.07,0.08
7.084,-0.01,-0.04,0.04,0.06
7.104,-0.04,-0.06,0.01,0.07
7.124,-0.01,-0.0,-0.02,0.02
7.143,0.01,0.03,-0.02,0.04
7.163,0.02,-0.0,-0.02,0.02
7.183,-0.0,-0.02,-0.01,0.03
7.203,-0.01,-0.02,0.01,0.02
7.223,0.0,-0.02,-0.0,0.02
7.243,-0.0,-0.03,0.0,0.03
7.263,0.01,-0.03,0.02,0.04
7.283,-0.01,0.0,0.01,0.01
7.303,-0.01,0.0,0.0,0.01
7.323,-0.01,-0.02,-0.0,0.02
7.343,-0.04,-0.02,0.01,0.05
7.363,-0.03,-0.02,-0.01,0.04
7.383,-0.01,-0.0,-0.0,0.02
7.403,-0.02,0.0,0.0,0.02
7.423,-0.06,-0.02,0.02,0.07
7.443,-0.02,-0.04,0.02,0.05
7.463,0.02,0.01,0.02,0.03
7.483,0.06,0.0,0.02,0.06
7.503,0.05,-0.03,-0.0,0.06
7.523,0.01,-0.01,-0.0,0.01
7.543,-0.04,-0.01,0.01,0.04
7.563,-0.07,-0.03,0.01,0.07
7.583,-0.07,-0.01,0.0,0.07
7.603,0.01,-0.01,-0.01,0.02
7.623,-0.0,-0.01,-0.0,0.01
7.643,-0.02,-0.02,0.01,0.03
7.663,-0.01,-0.03,0.03,0.05
7.683,-0.04,0.0,0.03,0.05
7.703,-0.0,-0.02,0.04,0.05
7.722,0.02,-0.02,-0.01,0.03
7.743,-0.01,-0.01,-0.02,0.03
7.762,-0.09,-0.01,-0.02,0.09
7.782,-0.14,0.01,-0.02,0.14
7.802,-0.09,-0.01,0.04,0.09
7.822,-0.06,-0.02,0.05,0.08
7.842,-0.06,-0.02,0.04,0.07
7.862,-0.08,-0.04,0.02,0.09
7.882,-0.1,-0.04,0.02,0.11
7.902,-0.1,0.03,0.02,0.1
7.922,-0.07,0.06,0.02,0.09
7.942,-0.05,0.01,0.05,0.07
7.962,-0.06,-0.03,0.04,0.08
7.982,-0.06,-0.03,0.02,0.07
8.002,-0.08,-0.02,-0.0,0.08
8.022,-0.09,-0.03,-0.04,0.1
8.042,-0.07,-0.02,-0.04,0.09
8.062,-0.03,0.0,-0.02,0.04
8.082,-0.01,-0.01,-0.0,0.01
8.102,-0.09,-0.01,0.0,0.09
8.122,-0.11,-0.01,0.01,0.11
8.142,-0.11,-0.03,0.01,0.12
8.162,-0.04,-0.03,0.0,0.05
8.181,0.01,-0.03,-0.02,0.04
8.201,-0.01,-0.06,0.0,0.06
8.221,-0.02,-0.03,0.01,0.04
8.241,-0.06,0.02,0.03,0.07
8.261,-0.07,0.01,0.03,0.08
8.281,-0.07,-0.02,0.02,0.08
8.301,-0.02,-0.04,0.01,0.04
8.321,0.0,-0.0,-0.01,0.01
8.341,-0.03,0.02,0.03,0.05
8.361,-0.03,-0.02,0.04,0.05
8.381,-0.02,0.0,0.03,0.04
8.402,0.02,-0.0,-0.02,0.03
8.422,0.06,-0.01,0.01,0.06
8.442,0.06,-0.04,0.01,0.07
8.462,0.05,-0.02,-0.02,0.06
8.482,0.01,0.0,-0.04,0.04
8.502,-0.01,0.01,-0.06,0.06
8.522,-0.0,0.0,-0.05,0.05
8.542,0.03,0.01,0.02,0.04
8.562,0.06,0.02,0.07,0.1
8.582,0.06,-0.03,0.07,0.1
8.602,0.05,-0.07,0.01,0.08
8.622,0.03,-0.03,-0.03,0.05
8.642,0.01,0.02,-0.02,0.03
8.662,0.01,0.02,-0.02,0.03
8.682,0.02,-0.01,-0.01,0.02
8.702,0.07,-0.02,-0.02,0.07
8.722,0.04,-0.01,-0.02,0.04
8.742,0.01,-0.02,0.02,0.03
8.762,-0.01,-0.01,0.03,0.03
8.782,-0.01,0.0,0.02,0.02
8.802,0.01,-0.01,0.01,0.02
8.822,0.03,-0.02,-0.03,0.05
8.841,0.01,-0.01,-0.02,0.03
8.862,0.01,-0.02,-0.03,0.03
8.881,0.02,-0.02,-0.04,0.05
8.901,0.03,-0.02,-0.03,0.05
8.921,0.03,-0.03,-0.02,0.05
8.941,0.03,-0.0,-0.05,0.06
8.961,0.0,-0.01,-0.04,0.04
8.981,-0.01,-0.02,-0.03,0.04
9.001,-0.01,0.01,0.01,0.02
9.021,0.03,0.01,0.02,0.03
9.041,0.05,-0.01,0.0,0.06
9.061,0.02,0.0,-0.04,0.05
9.081,0.01,-0.03,-0.02,0.04
9.101,-0.0,-0.05,0.01,0.05
9.121,0.03,-0.02,-0.02,0.04
9.141,0.01,-0.01,-0.04,0.04
9.161,-0.03,0.02,-0.08,0.09
9.181,-0.03,0.0,-0.01,0.03
9.201,-0.0,-0.03,0.04,0.05
9.221,0.01,-0.03,0.06,0.07
9.241,0.0,-0.04,0.02,0.05
9.261,-0.03,-0.03,0.02,0.05
9.281,-0.03,0.0,-0.01,0.04
9.301,-0.0,0.02,-0.02,0.03
9.321,0.04,0.04,-0.02,0.06
9.341,0.06,-0.0,0.01,0.06
9.361,0.04,-0.01,0.02,0.05
9.381,0.03,-0.02,0.01,0.04
9.401,-0.0,-0.03,-0.02,0.04
9.421,0.02,-0.0,-0.01,0.02
9.44,0.03,0.02,-0.01,0.03
9.46,0.04,0.0,-0.04,0.06
9.48,0.04,-0.02,-0.03,0.06
9.5,0.02,-0.02,0.0,0.03
9.52,0.01,0.0,0.01,0.02
9.54,0.01,0.0,0.01,0.02
9.56,0.02,-0.03,-0.0,0.03
9.58,0.02,-0.03,-0.01,0.04
9.6,0.02,-0.0,-0.01,0.02
9.62,0.0,-0.0,-0.01,0.01
9.64,-0.02,-0.02,-0.01,0.04
9.66,-0.03,-0.01,-0.0,0.03
9.68,-0.01,-0.01,-0.0,0.01
9.7,-0.02,-0.01,-0.01,0.02
9.72,-0.01,-0.05,-0.0,0.05
9.74,-0.01,-0.03,0.02,0.04
9.76,-0.01,-0.01,-0.01,0.02
9.78,-0.04,0.02,-0.05,0.07
9.8,-0.05,0.03,-0.05,0.08
9.82,-0.02,-0.05,0.05,0.07
9.84,-0.0,-0.01,0.06,0.06
9.86,0.0,-0.01,0.05,0.05
9.88,-0.02,-0.05,0.01,0.05
9.9,-0.04,-0.05,-0.02,0.07
9.92,-0.04,-0.01,-0.03,0.05
9.94,-0.03,0.03,-0.02,0.04
9.96,0.02,0.01,0.04,0.04
9.979,0.04,-0.04,0.04,0.07
10.0,0.03,-0.03,-0.01,0.05
10.02,-0.0,-0.03,-0.04,0.05
10.039,-0.03,-0.02,0.0,0.03
10.059,-0.02,0.02,0.03,0.04
10.079,0.01,0.02,0.02,0.03
10.099,0.03,-0.0,0.03,0.05
10.119,0.03,-0.02,0.03,0.05
10.139,0.0,-0.03,0.0,0.03
10.159,0.0,-0.01,0.02,0.02
10.179,0.01,-0.02,0.01,0.03
10.199,0.04,-0.01,0.02,0.04
10.219,0.05,0.0,0.04,0.07
10.239,0.02,-0.02,0.05,0.06
10.259,0.02,-0.02,0.02,0.03
10.279,0.03,-0.02,-0.02,0.04
10.299,0.04,-0.02,-0.01,0.04
10.319,0.04,-0.01,0.01,0.05
10.339,0.01,0.02,0.0,0.02
10.359,0.0,-0.01,-0.02,0.02
10.379,-0.02,-0.02,-0.02,0.03
10.399,-0.04,-0.06,0.0,0.07
10.419,-0.01,-0.04,-0.02,0.05
10.439,0.0,0.0,-0.02,0.02
10.459,-0.03,0.02,-0.06,0.07
10.479,-0.03,0.01,-0.0,0.04
10.499,-0.01,-0.01,0.06,0.06
10.519,-0.02,-0.01,0.06,0.06
10.539,-0.02,-0.03,0.02,0.05
10.558,-0.01,-0.06,-0.02,0.06
10.578,-0.03,-0.02,-0.05,0.06
10.598,-0.03,-0.01,-0.06,0.07
10.618,-0.05,0.01,-0.02,0.06
10.638,-0.03,0.0,0.05,0.06
10.658,0.02,0.0,0.06,0.06
10.678,0.04,-0.01,0.03,0.05
10.698,0.01,-0.04,-0.01,0.05
10.718,-0.03,-0.03,-0.02,0.04
10.738,-0.05,0.0,-0.0,0.05
10.758,-0.05,0.02,0.0,0.05
10.778,-0.02,-0.01,0.0,0.02
10.798,0.01,-0.02,-0.01,0.03
10.818,-0.02,-0.01,0.01,0.02
10.838,-0.04,-0.01,0.01,0.04
10.858,-0.02,-0.01,-0.0,0.03
10.878,-0.01,0.0,0.01,0.02
10.898,0.0,-0.0,0.01,0.01
10.918,0.0,-0.01,0.0,0.01
10.938,0.0,-0.02,-0.02,0.03
10.958,-0.02,-0.02,-0.01,0.03
10.978,-0.04,-0.03,0.01,0.04
10.998,-0.03,-0.03,-0.02,0.04
11.018,0.0,-0.01,-0.03,0.03
11.038,0.03,-0.01,-0.0,0.03
11.058,0.02,-0.02,0.01,0.03
11.078,-0.04,-0.01,0.03,0.05
11.098,-0.04,-0.02,0.02,0.05
11.117,-0.01,0.0,-0.02,0.03
11.137,0.02,-0.05,0.01,0.06
11.157,0.03,-0.03,0.0,0.04
11.177,-0.02,-0.03,-0.01,0.04
11.197,-0.05,-0.0,-0.07,0.09
11.217,-0.01,0.03,-0.04,0.06
11.237,0.02,-0.03,0.07,0.08
11.257,0.0,0.0,0.08,0.08
11.277,0.03,0.01,0.05,0.06
11.297,0.0,-0.07,0.01,0.07
11.317,-0.05,-0.05,-0.03,0.08
11.337,-0.03,0.01,-0.04,0.05
11.357,0.0,0.01,-0.01,0.02
11.377,0.02,-0.01,0.0,0.02
11.397,0.03,0.0,-0.0,0.03
11.417,0.04,0.02,0.01,0.05
11.437,0.03,-0.0,0.04,0.05
11.457,-0.01,0.0,0.04,0.04
11.477,-0.02,0.01,0.04,0.05
11.497,-0.03,-0.01,0.0,0.04
11.517,0.0,-0.01,-0.01,0.02
11.537,-0.01,-0.01,-0.01,0.02
11.557,-0.03,-0.02,-0.0,0.04
11.577,-0.02,-0.02,-0.01,0.03
11.597,-0.02,-0.02,-0.0,0.02
11.617,0.01,-0.01,0.01,0.02
11.636,-0.0,0.0,0.02,0.02
11.656,-0.03,-0.01,0.01,0.03
11.676,-0.02,-0.02,0.01,0.03
11.696,-0.01,-0.02,-0.01,0.03
11.716,-0.01,-0.01,0.0,0.02
11.736,0.02,-0.01,0.0,0.02
11.756,0.0,-0.02,0.0,0.02
11.776,-0.02,-0.03,-0.0,0.03
11.796,-0.02,-0.01,-0.02,0.03
11.816,-0.03,-0.01,-0.01,0.04
11.836,-0.02,-0.01,0.0,0.02
11.856,-0.01,-0.01,0.02,0.02
11.876,0.0,-0.01,0.03,0.03
11.896,0.01,0.03,0.01,0.04
11.916,0.0,-0.05,0.01,0.06
11.936,0.01,-0.04,-0.01,0.05
11.956,-0.03,-0.01,-0.04,0.06
11.976,-0.05,0.0,-0.1,0.11
11.996,-0.05,0.0,-0.06,0.08
12.014,0.01,0.01,0.04,0.05
12.035,0.0,-0.01,0.1,0.1
12.054,0.02,-0.02,0.08,0.08
12.075,0.03,-0.09,0.02,0.1
12.094,0.01,-0.05,-0.04,0.07
12.114,-0.01,0.01,-0.06,0.06
12.134,-0.01,0.03,-0.05,0.06
12.154,-0.01,-0.01,-0.03,0.03
12.174,0.01,-0.06,-0.01,0.06
12.194,0.03,-0.04,-0.01,0.05
12.214,0.02,-0.03,0.0,0.03
12.234,0.04,-0.01,0.01,0.04
12.254,0.08,0.03,0.05,0.1
12.274,0.07,-0.02,0.09,0.11
12.294,0.0,-0.02,0.06,0.06
12.314,-0.05,-0.01,0.02,0.06
