time,ax,ay,az,atotal
2.456,-0.53,-5.74,0.17,5.77
2.476,1.4,-8.43,-0.18,8.55
2.496,2.44,-11.07,-1.42,11.43
2.516,1.93,-12.81,-2.87,13.27
2.536,0.68,-12.66,-2.83,12.99
2.556,0.0,-11.27,-1.95,11.44
2.576,-1.05,-8.73,-1.74,8.96
2.596,-3.49,-4.08,-4.71,7.14
2.616,-4.49,7.72,-0.48,8.95
2.636,3.48,22.68,-3.49,23.2
2.656,6.38,11.24,-1.2,12.98
2.676,3.0,12.71,4.58,13.83
2.696,0.82,8.87,5.94,10.71
2.716,-1.3,7.51,1.19,7.72
2.736,-2.06,6.82,-0.89,7.19
2.755,-0.89,4.63,0.48,4.74
2.775,0.8,2.06,1.13,2.48
2.795,1.91,-0.5,0.46,2.03
2.815,2.01,-3.35,-0.37,3.92
2.835,1.43,-6.65,-0.39,6.81
2.855,0.11,-10.02,-0.47,10.04
2.875,-1.15,-12.2,-2.46,12.5
2.895,-1.6,-12.56,-4.38,13.4
2.915,-0.75,-11.11,-3.73,11.75
2.935,-0.38,-9.64,-2.46,9.96
2.955,0.49,-8.9,-1.49,9.04
2.975,1.91,-7.61,-2.16,8.14
2.995,1.15,-1.63,-5.58,5.92
3.015,2.18,10.75,-0.39,10.98
3.035,-2.75,14.76,-0.87,15.04
3.055,-2.07,12.88,0.56,13.06
3.075,-3.89,13.32,6.39,15.27
3.095,-1.63,11.53,8.57,14.46
3.115,1.83,8.74,2.35,9.24
3.135,0.8,4.92,-1.11,5.11
3.155,-0.52,2.94,0.19,3.0
3.175,-0.72,1.59,2.11,2.74
3.195,-0.55,-0.74,1.8,2.02
3.215,-0.63,-2.9,0.49,3.01
3.235,-0.53,-5.33,-0.45,5.37
3.255,0.11,-7.98,-0.62,8.01
3.275,0.84,-10.24,-2.06,10.47
3.295,0.53,-11.89,-3.34,12.36
3.315,-0.02,-11.9,-2.95,12.26
3.335,-0.32,-11.05,-2.21,11.27
3.355,-0.9,-9.82,-1.09,9.92
3.375,-0.25,-7.53,-2.28,7.87
3.394,0.03,-0.91,-3.51,3.63
3.415,-0.46,13.99,-2.39,14.2
3.435,3.12,15.23,-3.94,16.03
3.454,1.21,12.11,1.47,12.26
3.475,1.47,14.07,9.23,16.9
3.495,0.69,12.15,9.05,15.17
3.514,-1.22,8.61,2.33,9.01
3.534,-0.97,5.92,-0.87,6.06
3.554,0.25,3.07,-0.74,3.16
3.574,1.0,0.21,0.45,1.11
3.594,1.33,-2.36,0.27,2.72
3.614,1.91,-4.86,-0.67,5.26
3.634,1.45,-7.68,-1.46,7.95
3.654,0.1,-9.84,-1.84,10.01
3.674,-1.22,-11.19,-2.62,11.56
3.694,-1.39,-11.77,-3.57,12.38
3.714,-0.76,-11.71,-2.88,12.08
3.734,-0.27,-11.51,-1.83,11.66
3.754,1.2,-10.57,-0.53,10.65
3.774,0.84,-6.71,-2.66,7.27
3.794,1.03,2.83,1.19,3.24
3.814,-3.05,25.0,-4.97,25.68
3.834,-0.9,16.6,-0.89,16.64
3.854,-3.51,14.5,6.46,16.26
3.874,-2.35,11.75,8.57,14.73
3.894,1.4,9.45,1.53,9.67
3.914,0.68,5.61,-2.78,6.3
3.934,-0.87,3.46,1.12,3.74
3.954,-1.69,1.05,3.86,4.35
3.974,-1.28,-1.73,2.03,2.96
3.994,-0.19,-4.1,-1.27,4.3
4.014,1.71,-6.7,-2.29,7.28
4.03,2.53,-9.35,-1.65,9.83
4.05,1.99,-11.75,-1.89,12.07
4.07,-0.21,-12.83,-2.22,13.02
4.09,-1.71,-12.77,-2.43,13.11
4.11,-2.52,-11.44,-2.29,11.94
4.13,-2.42,-9.1,-2.12,9.65
4.15,-1.88,-4.91,-5.07,7.3
4.169,-1.34,4.26,-0.44,4.49
4.19,4.58,20.6,-2.94,21.31
4.209,5.19,15.34,0.76,16.21
4.229,0.02,13.19,6.49,14.7
4.25,-1.3,9.6,8.38,12.81
4.269,-1.61,8.51,2.66,9.06
4.289,-0.04,7.13,0.19,7.13
4.309,2.38,4.49,0.71,5.13
4.329,3.25,1.65,1.04,3.79
4.349,2.41,-1.37,0.4,2.8
4.369,1.68,-3.99,-0.45,4.35
4.389,-0.06,-7.15,-0.68,7.18
4.409,-1.28,-10.46,-1.25,10.61
4.429,-1.63,-12.75,-3.64,13.36
4.449,-0.8,-13.33,-4.76,14.17
4.469,0.12,-12.16,-3.81,12.74
4.489,-0.01,-10.58,-2.34,10.84
4.509,0.87,-8.63,-0.93,8.72
4.529,-0.01,-3.95,-2.26,4.55
4.549,1.24,6.05,-1.29,6.31
4.569,-1.53,22.32,-2.87,22.56
4.589,-1.21,14.24,0.67,14.3
4.609,-4.54,13.58,5.83,15.46
4.629,-2.04,12.73,7.15,14.74
4.649,1.94,10.28,0.28,10.47
4.669,1.6,5.61,-2.15,6.22
4.689,-0.24,4.03,2.07,4.54
4.709,-1.58,2.0,3.53,4.35
4.729,-1.55,-1.44,1.34,2.51
4.749,-1.03,-4.43,-0.67,4.6
4.769,0.48,-6.91,-1.0,7.0
4.789,1.85,-9.52,-1.39,9.8
4.809,2.02,-12.13,-2.41,12.53
4.829,0.56,-13.13,-3.98,13.73
4.849,-0.28,-12.24,-3.42,12.71
4.869,-0.88,-10.89,-1.96,11.1
4.889,-2.06,-9.34,-0.3,9.57
4.908,-0.74,-7.38,-1.26,7.52
4.928,-0.09,-0.89,-3.37,3.49
4.948,-0.45,19.59,-2.73,19.78
4.969,5.25,18.68,-2.52,19.57
4.989,2.27,13.31,3.49,13.95
5.009,1.89,11.81,8.3,14.56
5.028,-1.22,8.87,5.02,10.27
5.048,-1.26,6.2,-0.08,6.32
5.068,-0.35,4.47,-0.98,4.59
5.088,1.13,1.87,0.43,2.23
5.108,2.35,-1.61,0.57,2.9
5.128,1.7,-4.79,0.86,5.15
5.148,0.44,-7.47,0.46,7.5
5.168,-0.16,-9.79,-1.62,9.93
5.188,-0.38,-11.65,-3.4,12.15
5.208,-0.54,-12.05,-4.61,12.91
5.228,-0.72,-11.91,-3.38,12.4
5.248,-0.29,-11.96,-1.7,12.09
5.268,0.16,-6.58,-1.44,6.74
5.288,0.88,-4.19,-3.3,5.41
5.308,3.84,4.92,-2.86,6.87
5.328,-0.63,20.81,-4.1,21.22
5.348,-3.91,13.64,0.17,14.19
5.368,-5.97,12.81,6.77,15.67
5.388,-1.3,11.64,7.59,13.96
5.408,1.25,9.66,0.96,9.78
5.428,-0.22,6.99,-2.21,7.33
5.448,-0.92,4.54,1.28,4.81
5.468,-0.96,2.04,3.38,4.06
5.488,-0.96,-0.36,1.97,2.22
5.508,-1.2,-2.86,-0.07,3.1
5.527,-0.73,-5.55,-1.1,5.7
5.547,0.25,-8.38,-1.1,8.45
5.567,1.49,-11.08,-1.86,11.34
5.587,1.79,-12.94,-3.52,13.53
5.607,0.61,-12.75,-4.02,13.39
5.627,-0.26,-11.53,-3.22,11.98
5.647,-1.65,-10.13,-1.52,10.38
5.667,-1.9,-8.4,-0.15,8.61
5.687,0.31,-3.14,-3.64,4.82
5.707,0.31,10.17,-1.14,10.24
5.727,3.04,22.84,-5.63,23.72
5.747,1.45,11.72,-2.16,12.0
5.767,0.98,14.23,6.77,15.79
5.787,1.29,10.51,9.61,14.3
5.807,0.91,7.35,3.65,8.25
5.827,1.08,5.46,-0.63,5.6
5.847,0.4,3.84,-0.91,3.96
5.867,0.35,0.92,-0.37,1.05
5.887,0.54,-2.44,0.91,2.65
5.907,0.35,-5.07,0.7,5.13
5.927,0.29,-7.76,-0.39,7.78
5.947,-0.14,-10.51,-2.29,10.76
5.967,-0.58,-12.05,-3.99,12.71
5.987,-0.32,-12.2,-4.22,12.91
6.007,-0.67,-11.58,-3.41,12.09
6.027,-0.73,-10.69,-2.62,11.03
6.047,0.78,-9.44,-1.47,9.58
6.067,1.26,-5.85,-3.57,6.96
6.087,1.47,2.25,-0.04,2.69
6.107,-1.71,22.23,-4.36,22.72
6.127,-2.91,14.64,-2.06,15.07
6.147,-4.85,12.49,6.82,15.03
6.167,-3.32,11.65,11.01,16.37
6.187,2.03,10.18,3.07,10.82
6.206,2.18,6.87,-2.83,7.74
6.226,0.86,4.5,-0.38,4.6
6.246,-0.94,2.47,3.31,4.23
6.266,-1.99,0.16,2.61,3.28
6.286,-2.19,-2.27,0.33,3.17
6.306,-1.69,-4.64,-1.27,5.1
6.326,0.12,-7.28,-1.12,7.37
6.346,1.78,-10.13,-1.05,10.33
6.366,2.53,-12.42,-2.7,12.96
6.386,1.36,-12.66,-3.33,13.16
6.406,0.29,-11.76,-2.74,12.08
6.426,-1.02,-10.35,-1.19,10.47
6.446,-1.48,-7.7,-2.08,8.11
6.466,-3.92,-0.8,-1.12,4.15
6.486,-4.13,13.69,-3.67,14.76
6.506,4.42,18.44,-3.95,19.37
6.526,4.86,13.26,2.91,14.42
6.546,3.11,11.47,9.27,15.07
6.566,0.11,10.41,5.51,11.78
6.586,-1.06,7.68,-0.21,7.75
6.606,-0.49,5.15,0.12,5.17
6.626,1.53,2.73,1.63,3.52
6.646,1.79,-0.48,0.1,1.85
6.666,1.54,-3.04,-1.35,3.66
6.686,1.6,-5.69,-0.85,5.98
6.706,0.45,-8.36,-0.31,8.38
6.726,-0.52,-10.84,-0.96,10.89
6.746,-1.49,-12.14,-2.81,12.55
6.766,-1.2,-11.67,-3.82,12.34
6.785,-0.75,-10.55,-3.68,11.19
6.806,0.09,-9.47,-2.09,9.7
6.826,1.55,-8.64,0.16,8.78
6.845,0.97,-6.05,-2.85,6.76
6.865,1.86,2.49,-1.25,3.35
6.885,-0.86,23.09,-7.23,24.21
6.905,-2.59,16.16,-1.05,16.4
6.926,-4.03,12.55,6.69,14.78
6.946,-0.72,11.83,10.33,15.72
6.965,2.58,9.82,3.28,10.67
6.985,1.05,6.5,-2.14,6.92
7.005,-0.98,4.82,-0.07,4.92
7.025,-2.33,2.25,2.8,4.28
7.045,-1.95,-0.9,2.14,3.03
7.065,-1.48,-3.81,-0.12,4.09
7.085,-1.26,-6.15,-1.32,6.42
7.105,0.02,-8.39,-0.52,8.4
7.125,2.2,-10.61,-1.02,10.88
7.145,2.82,-12.44,-2.38,12.98
7.165,1.67,-12.86,-3.14,13.34
7.185,0.88,-12.13,-2.76,12.47
7.205,-0.58,-10.11,-1.0,10.18
7.225,-1.37,-7.5,-0.74,7.66
7.245,-3.5,-1.09,-4.13,5.52
7.265,-3.52,16.36,-4.31,17.28
7.285,3.61,19.33,-4.96,20.28
7.305,3.55,13.39,-0.13,13.85
7.325,2.63,13.16,8.55,15.92
7.345,1.25,9.53,8.38,12.75
7.364,0.95,6.99,1.21,7.16
7.385,1.58,5.07,-1.23,5.45
7.405,1.34,3.71,0.11,3.95
7.424,1.08,0.79,0.84,1.59
7.444,0.99,-3.2,0.28,3.36
7.464,0.74,-6.4,-0.33,6.45
7.484,0.18,-9.29,-0.79,9.33
7.504,-0.37,-11.58,-2.52,11.85
7.524,-1.04,-12.64,-4.03,13.31
7.544,-0.79,-12.5,-4.03,13.15
7.564,-0.79,-11.45,-3.16,11.9
7.584,-0.44,-10.2,-2.14,10.43
7.604,1.43,-7.95,-1.91,8.3
7.624,0.36,-2.14,-2.25,3.13
7.644,1.93,12.19,-0.45,12.35
7.664,-3.62,22.94,-3.76,23.52
7.684,-4.13,13.57,0.14,14.18
7.704,-5.71,12.18,8.71,16.03
7.724,0.1,11.01,7.15,13.13
7.744,3.0,7.29,-1.21,7.98
7.764,2.75,4.45,-3.22,6.14
7.784,0.77,3.59,1.44,3.94
7.804,-1.66,1.16,3.05,3.66
7.824,-2.63,-2.48,1.43,3.89
7.844,-1.7,-5.61,-0.48,5.88
7.864,-0.32,-8.22,-1.36,8.34
7.884,0.83,-10.36,-2.1,10.6
7.904,1.16,-12.11,-2.54,12.43
7.924,1.42,-12.87,-2.34,13.16
7.944,1.03,-11.66,-2.98,12.08
7.964,-0.29,-10.1,-2.71,10.46
7.984,-1.43,-7.85,-2.34,8.32
8.003,-2.03,-3.16,-5.61,6.75
8.023,-3.33,10.74,-0.75,11.27
8.044,5.23,22.45,-5.0,23.59
8.064,5.54,11.99,-0.82,13.24
8.084,2.19,10.61,6.63,12.7
8.103,-0.89,8.12,7.64,11.19
8.123,-1.1,7.51,0.38,7.6
8.143,-0.33,6.99,-2.38,7.39
8.163,0.63,4.37,0.37,4.43
8.183,1.97,1.6,2.24,3.38
8.203,3.08,-1.11,1.6,3.64
8.223,2.37,-3.5,-0.41,4.25
8.243,0.65,-6.05,-1.12,6.19
8.263,-1.47,-9.1,-0.93,9.26
8.283,-2.2,-11.82,-3.06,12.41
8.303,-1.66,-12.99,-5.89,14.36
8.323,-0.0,-12.03,-4.87,12.98
8.343,0.21,-10.6,-3.07,11.04
8.363,0.61,-8.79,-1.79,8.99
8.383,2.13,-6.28,-1.05,6.71
8.403,1.81,-1.64,-3.34,4.14
8.423,5.92,16.47,-4.6,18.1
8.443,-1.43,21.88,-3.69,22.23
8.463,-7.11,10.69,-1.91,12.98
8.483,-8.77,11.97,3.66,15.28
8.503,-0.18,10.29,8.04,13.06
8.523,7.21,9.64,1.51,12.14
8.543,7.57,6.07,-2.87,10.12
8.563,4.82,4.57,-0.44,6.66
8.583,0.79,1.86,1.29,2.4
8.603,-0.62,-1.66,0.19,1.78
8.623,-0.57,-3.81,-1.36,4.09
8.643,-0.03,-5.03,-1.53,5.26
8.662,1.02,-6.75,-0.68,6.86
8.682,2.03,-8.88,-1.51,9.24
8.702,3.12,-11.1,-3.45,12.04
8.722,3.41,-12.82,-4.51,14.01
8.742,3.34,-12.62,-4.75,13.89
8.762,1.58,-11.2,-3.18,11.75
8.782,-1.07,-10.13,-0.93,10.23
8.802,-1.13,-8.48,-2.5,8.92
8.822,1.81,-4.47,-2.07,5.25
8.842,6.28,9.59,-0.6,11.48
8.863,5.89,22.36,-2.54,23.26
8.882,1.33,21.62,-0.57,21.67
8.902,8.63,16.29,3.04,18.68
8.922,10.82,7.54,2.83,13.49
8.942,6.38,3.79,5.08,9.0
8.962,3.9,6.53,3.02,8.18
8.982,4.3,6.2,1.61,7.71
9.002,0.79,2.56,1.23,2.95
9.022,-2.85,-0.46,0.21,2.9
9.042,-3.82,-3.78,-2.41,5.89
9.062,-1.26,-7.93,-3.71,8.85
9.082,2.2,-10.71,-4.25,11.73
9.102,3.9,-13.27,-4.3,14.48
9.122,2.8,-15.14,-3.06,15.69
9.142,1.48,-14.45,-2.01,14.67
9.162,2.1,-10.98,-1.72,11.31
9.182,4.08,-6.15,-3.25,8.06
9.202,4.26,10.23,-1.41,11.17
9.222,-1.34,44.13,-0.6,44.15
9.242,3.34,11.16,-1.15,11.71
9.262,3.43,6.35,1.31,7.34
9.282,2.26,6.49,4.23,8.06
9.302,3.5,8.49,6.04,10.99
9.321,1.63,7.57,2.21,8.06
9.341,-0.46,4.24,-0.49,4.29
9.361,-1.26,1.27,-1.38,2.26
9.381,-0.23,-1.86,-0.55,1.96
9.401,2.27,-3.89,0.14,4.51
9.421,2.78,-5.48,0.03,6.14
9.441,1.89,-6.46,-0.2,6.73
9.461,0.91,-7.2,-0.95,7.32
9.481,0.04,-8.43,-1.44,8.55
9.501,0.32,-10.26,-1.97,10.45
9.521,2.27,-11.71,-1.79,12.06
9.541,3.98,-12.14,-0.57,12.79
9.561,4.25,-10.43,-0.86,11.29
9.581,0.66,-6.6,-0.07,6.63
9.601,-0.41,2.92,0.49,2.99
9.621,-1.33,17.19,-1.05,17.27
9.641,0.86,23.2,-0.87,23.23
9.661,8.61,14.7,3.3,17.35
9.681,10.53,9.0,7.66,15.83
9.701,5.49,7.58,6.42,11.35
9.721,2.75,8.21,2.27,8.95
9.741,0.52,5.53,0.15,5.56
9.761,0.17,2.77,2.32,3.62
9.781,0.33,0.57,1.96,2.06
9.801,0.78,-2.1,0.72,2.35
9.821,0.87,-5.65,-0.32,5.72
9.841,0.58,-8.66,-2.02,8.91
9.861,1.44,-10.57,-3.02,11.09
9.881,2.9,-12.03,-2.34,12.6
9.901,3.67,-12.65,-0.76,13.19
9.921,2.14,-12.3,0.65,12.5
9.94,-0.2,-10.73,1.0,10.77
9.96,-1.61,-7.65,-1.27,7.92
9.98,0.22,-1.29,-1.2,1.77
10.0,4.51,17.48,-1.02,18.08
10.021,4.24,16.41,-0.57,16.96
10.041,-0.89,10.56,2.74,10.95
10.061,-3.88,11.73,7.28,14.34
10.08,-1.82,12.11,8.71,15.03
10.1,-0.01,10.08,3.67,10.73
10.12,-1.32,7.12,1.64,7.42
10.14,-2.02,4.17,2.03,5.05
10.16,-1.17,0.96,2.5,2.92
10.18,-0.04,-1.48,2.08,2.55
10.2,1.29,-2.37,0.96,2.87
10.22,2.49,-3.45,0.64,4.31
10.24,2.37,-5.54,0.55,6.05
10.26,2.42,-8.24,0.21,8.59
10.28,2.18,-10.34,-0.91,10.61
10.3,1.75,-11.85,-1.49,12.08
10.32,1.24,-13.21,-0.16,13.27
10.34,0.12,-13.43,0.93,13.46
10.36,-0.71,-10.78,-1.4,10.89
10.38,-3.71,-3.09,-2.22,5.31
10.4,-3.76,12.54,-0.8,13.12
10.419,1.49,23.44,-1.99,23.57
10.439,4.0,16.33,2.85,17.05
10.459,7.3,12.82,6.76,16.23
10.479,4.16,9.51,4.77,11.43
10.499,1.31,7.84,1.54,8.1
10.519,0.12,5.2,0.32,5.21
10.539,0.12,2.9,1.22,3.15
10.559,-0.11,0.31,1.44,1.47
10.579,-0.1,-2.09,0.13,2.1
10.599,0.02,-4.66,-1.16,4.8
10.619,-0.4,-7.62,-1.23,7.73
10.639,-0.74,-10.59,-1.19,10.68
10.659,-1.02,-12.72,-2.09,12.93
10.679,-0.72,-13.55,-2.98,13.89
10.699,-0.46,-13.41,-2.38,13.63
10.719,-0.51,-12.25,-1.32,12.33
10.743,0.4,-10.17,-1.57,10.3
10.763,0.02,-5.17,-2.14,5.6
10.783,2.42,4.88,-0.42,5.46
10.803,-1.95,19.77,-5.05,20.5
10.823,-2.09,15.16,-0.28,15.3
10.843,-5.44,12.01,9.03,15.98
10.863,-2.54,11.59,9.77,15.37
10.883,1.76,11.83,1.28,12.03
10.903,1.72,8.92,-1.96,9.29
10.923,1.16,4.93,0.24,5.07
10.943,-0.68,1.82,3.88,4.34
10.963,-1.64,-0.49,3.09,3.53
10.982,-1.62,-2.06,-0.3,2.64
11.002,-0.14,-4.04,-1.76,4.41
11.022,1.51,-6.75,-0.95,6.98
11.042,2.04,-9.65,-0.07,9.86
11.062,1.48,-12.2,-0.39,12.29
11.083,0.34,-13.33,-1.96,13.48
11.102,-0.06,-13.43,-2.68,13.7
11.122,-0.63,-12.16,-2.32,12.4
11.142,-1.17,-9.17,-3.73,9.97
11.162,-3.37,-3.77,-1.81,5.37
11.182,-1.46,11.24,-2.98,11.72
11.202,5.93,22.45,-2.22,23.33
11.222,4.95,15.88,4.22,17.16
11.242,2.86,11.72,6.46,13.68
11.262,-1.0,9.45,2.58,9.85
11.282,-2.61,7.96,-0.56,8.4
11.302,-1.23,5.28,0.25,5.43
11.322,1.22,2.63,2.17,3.62
11.342,2.14,0.2,2.26,3.12
11.362,2.08,-1.98,1.39,3.19
11.382,1.65,-4.14,0.17,4.46
11.402,1.04,-7.13,-0.82,7.25
11.422,0.15,-10.2,-1.52,10.31
11.442,-0.46,-12.46,-2.64,12.74
11.462,-0.69,-13.0,-3.61,13.51
11.481,-0.93,-12.13,-3.42,12.63
11.501,-1.64,-11.04,-2.38,11.42
11.521,-1.16,-8.79,-1.84,9.06
11.542,-1.54,-3.83,-1.89,4.54
11.561,2.26,6.23,-3.1,7.32
11.582,-1.31,20.44,-3.86,20.85
11.602,-2.19,14.7,0.91,14.89
11.622,-4.61,13.1,7.92,15.99
11.642,-0.91,12.15,7.35,14.23
11.661,2.8,8.89,1.55,9.45
11.681,2.31,6.02,-1.44,6.61
11.701,0.12,4.62,0.3,4.63
11.721,-1.49,2.32,3.16,4.19
11.741,-2.37,-0.49,2.74,3.66
11.761,-2.97,-2.51,-0.3,3.9
11.781,-2.14,-4.82,-2.2,5.71
11.801,0.18,-7.63,-1.51,7.79
11.821,2.33,-10.39,-1.42,10.74
11.841,2.51,-12.45,-2.39,12.93
11.861,1.31,-13.12,-2.59,13.43
11.881,0.7,-12.69,-2.18,12.9
11.901,-0.37,-11.25,-1.47,11.35
11.921,-0.51,-8.78,-2.62,9.17
11.941,0.09,-3.48,-6.24,7.15
11.961,-4.01,6.13,-1.04,7.4
11.981,0.3,18.72,-4.25,19.2
12.001,2.02,16.4,-2.16,16.66
12.021,4.68,16.53,7.04,18.56
12.041,2.36,11.83,11.35,16.56
12.061,-1.02,8.79,4.47,9.91
12.081,-2.03,5.88,-0.98,6.3
12.1,-1.28,3.1,-1.54,3.69
12.12,1.06,1.2,-0.11,1.6
12.14,2.45,-1.66,0.79,3.06
12.16,2.14,-4.05,-0.36,4.6
12.18,1.26,-6.78,-1.7,7.1
12.2,0.79,-9.84,-1.76,10.03
12.22,0.34,-12.34,-2.35,12.57
12.24,-0.75,-13.21,-3.81,13.77
12.26,-1.77,-12.6,-3.41,13.17
12.28,-2.52,-11.53,-1.52,11.9
12.3,-1.64,-9.52,-0.46,9.67
12.32,-1.47,-4.12,-1.96,4.79
12.34,0.72,5.29,0.12,5.34
12.36,-2.18,21.28,-4.86,21.94
12.38,-2.01,13.77,-1.15,13.96
12.4,-5.27,13.49,8.17,16.63
12.42,-3.66,12.4,10.5,16.66
