time,ax,ay,az,atotal
2.256,-0.43,0.59,1.06,1.29
2.276,-0.57,1.09,0.75,1.43
2.296,-0.55,1.06,0.35,1.25
2.316,-0.66,0.97,0.18,1.19
2.336,-0.25,0.8,-0.07,0.84
2.356,0.37,0.61,-0.37,0.81
2.376,0.61,0.51,-0.7,1.06
2.396,0.39,0.41,-0.85,1.02
2.416,-0.23,0.59,-0.76,0.98
2.436,-0.55,0.36,-0.75,0.99
2.456,-0.59,-0.18,-1.13,1.29
2.476,-0.17,-0.64,-1.59,1.72
2.496,0.56,-0.7,-1.73,1.95
2.516,1.39,-0.4,-1.47,2.06
2.536,1.57,-0.27,-1.07,1.91
2.555,1.5,0.05,-0.71,1.66
2.575,0.95,0.77,-0.39,1.29
2.595,0.25,0.35,-0.42,0.61
2.615,-0.23,0.11,-0.81,0.85
2.635,-0.4,-0.25,-0.97,1.08
2.655,-0.04,-0.51,-0.97,1.09
2.675,0.6,-0.42,-0.79,1.08
2.695,0.95,-0.43,-0.44,1.14
2.715,1.04,-0.45,-0.17,1.14
2.735,0.89,-0.43,-0.19,1.01
2.755,0.82,-0.54,-0.3,1.03
2.775,0.84,-0.56,-0.36,1.07
2.795,0.99,-0.5,-0.3,1.15
2.815,1.04,-0.2,-0.14,1.07
2.835,0.89,0.08,0.0,0.89
2.855,0.52,0.09,0.0,0.53
2.875,0.2,-0.02,0.03,0.2
2.895,-0.08,0.03,0.2,0.22
2.915,-0.04,0.09,0.38,0.4
2.935,-0.03,0.04,0.48,0.48
2.955,-0.16,-0.1,0.49,0.52
2.975,-0.16,-0.27,0.51,0.6
2.995,0.05,-0.35,0.57,0.67
3.015,0.24,-0.36,0.65,0.78
3.035,0.36,-0.2,0.73,0.84
3.055,0.47,-0.03,0.59,0.76
3.075,0.52,-0.05,0.54,0.75
3.095,0.49,-0.01,0.61,0.78
3.115,0.29,-0.03,0.79,0.85
3.135,0.16,-0.08,0.79,0.81
3.154,0.15,-0.14,0.65,0.68
3.175,0.22,-0.24,0.63,0.71
3.194,0.46,-0.36,0.61,0.85
3.214,0.42,-0.3,0.56,0.76
3.234,0.52,-0.15,0.41,0.68
3.254,0.8,-0.09,0.14,0.81
3.274,0.97,-0.19,-0.08,0.99
3.294,0.69,-0.07,0.09,0.7
3.314,0.25,0.37,0.25,0.51
3.334,-0.35,0.66,0.34,0.82
3.354,-0.33,0.55,0.46,0.79
3.374,-0.01,0.33,0.37,0.5
3.394,0.64,0.37,0.09,0.74
3.414,1.21,0.84,-0.06,1.48
3.434,1.22,1.51,0.1,1.94
3.454,0.81,1.98,0.57,2.22
3.474,0.34,2.23,0.92,2.43
3.494,0.2,2.51,0.73,2.62
3.514,0.3,2.83,-0.04,2.84
3.534,0.37,3.2,-0.93,3.36
3.554,0.17,3.31,-1.56,3.66
3.574,-0.46,2.99,-1.9,3.57
3.594,-1.09,1.99,-2.1,3.09
3.614,-1.21,1.25,-2.03,2.67
3.634,-0.62,0.81,-1.76,2.03
3.654,0.26,0.2,-1.35,1.39
3.674,0.65,-0.35,-1.24,1.45
3.694,0.46,-0.83,-1.45,1.73
3.713,-0.22,-1.24,-1.54,1.99
3.733,-0.94,-1.26,-1.48,2.16
3.754,-1.36,-1.24,-1.03,2.12
3.773,-1.39,-1.19,-0.74,1.97
3.793,-0.95,-1.14,-0.8,1.69
3.813,-0.32,-1.46,-1.17,1.9
3.833,0.28,-1.89,-1.4,2.36
3.853,0.62,-2.33,-1.42,2.79
3.873,0.57,-2.48,-1.37,2.89
3.893,0.25,-2.49,-1.39,2.86
3.913,-0.1,-2.48,-1.26,2.78
3.933,-0.39,-1.94,-0.85,2.15
3.953,-0.45,-1.0,-0.44,1.18
3.973,0.02,-0.21,-0.44,0.49
3.993,0.52,-0.1,-0.63,0.82
4.009,0.57,0.01,-0.68,0.89
4.029,0.43,0.22,-0.54,0.72
4.049,0.1,0.31,-0.11,0.35
4.069,-0.21,0.2,0.12,0.31
4.089,-0.28,-0.09,-0.01,0.3
4.109,-0.46,-0.33,-0.16,0.59
4.129,-0.63,-0.54,-0.16,0.85
4.149,-0.66,-0.61,0.02,0.9
4.169,-0.72,-0.54,0.1,0.91
4.189,-0.73,-0.62,0.12,0.96
4.209,-0.54,-0.61,0.16,0.83
4.229,-0.51,-0.32,0.27,0.66
4.249,-0.46,0.02,0.34,0.58
4.269,-0.56,0.27,0.42,0.75
4.289,-0.52,0.27,0.4,0.71
4.309,-0.49,0.06,0.41,0.64
4.329,-0.59,-0.15,0.52,0.8
4.349,-0.66,-0.23,0.65,0.96
4.368,-0.72,-0.36,0.68,1.06
4.389,-0.66,-0.45,0.53,0.96
4.408,-0.64,-0.38,0.34,0.82
4.428,-0.7,-0.41,0.16,0.83
4.448,-0.91,-0.37,-0.2,1.0
4.468,-1.01,0.29,-0.54,1.18
4.488,-0.52,0.61,-0.79,1.13
4.508,0.65,0.37,-0.63,0.98
4.528,1.64,0.39,-0.34,1.71
4.548,1.73,0.27,-0.07,1.75
4.568,0.99,0.03,0.18,1.01
4.588,-0.02,-0.1,0.32,0.34
4.608,-0.7,-0.07,0.07,0.7
4.628,-0.84,0.07,-0.33,0.91
4.648,-0.73,0.59,-0.47,1.05
4.668,-0.39,1.35,-0.46,1.48
4.688,0.04,2.0,-0.37,2.03
4.708,0.21,2.54,-0.25,2.56
4.728,0.1,3.0,0.09,3.0
4.748,-0.02,3.5,0.31,3.52
4.768,-0.13,4.01,0.2,4.02
4.788,-0.21,4.23,-0.13,4.24
4.808,-0.31,3.76,-0.42,3.8
4.828,0.02,2.73,-0.7,2.82
4.848,0.78,1.7,-1.0,2.12
4.868,1.58,0.99,-1.29,2.27
4.888,1.99,0.53,-1.46,2.52
4.908,1.85,0.27,-1.47,2.38
4.928,1.25,0.01,-1.4,1.87
4.948,0.73,-0.53,-1.25,1.54
4.968,0.13,-1.38,-1.01,1.71
4.987,-0.4,-2.34,-0.78,2.5
5.007,-0.53,-3.3,-0.69,3.41
5.027,-0.5,-4.06,-0.69,4.15
5.047,-0.41,-4.53,-0.76,4.61
5.067,-0.22,-4.52,-1.1,4.65
5.087,-0.26,-3.84,-1.33,4.07
5.107,-0.57,-2.93,-1.16,3.2
5.127,-0.73,-1.99,-0.82,2.27
5.147,-0.52,-0.84,-0.46,1.09
5.167,-0.1,0.28,-0.19,0.35
5.187,0.33,0.87,-0.2,0.95
5.207,0.92,1.04,-0.55,1.5
5.227,1.2,0.84,-0.74,1.64
5.247,1.04,0.48,-0.31,1.19
5.267,0.87,0.19,0.26,0.93
5.287,0.4,-0.17,0.46,0.63
5.307,-0.06,-0.61,0.32,0.7
5.327,-0.24,-0.78,0.08,0.82
5.347,-0.2,-0.64,-0.03,0.67
5.367,0.15,-0.44,0.0,0.47
5.387,0.46,-0.27,-0.02,0.54
5.407,0.51,-0.19,-0.05,0.54
5.427,0.4,-0.22,0.04,0.46
5.447,0.24,0.05,0.19,0.31
5.466,0.28,0.4,0.32,0.58
5.487,0.31,0.3,0.35,0.55
5.507,0.37,-0.03,0.36,0.51
5.526,0.34,-0.18,0.32,0.5
5.546,0.13,-0.21,0.26,0.35
5.566,0.02,-0.35,0.2,0.4
5.586,0.08,-0.51,0.14,0.53
5.606,0.17,-0.63,0.21,0.68
5.626,0.2,-0.74,0.19,0.79
5.646,0.34,-0.89,-0.23,0.98
5.666,0.9,-0.92,-0.41,1.35
5.686,0.95,-0.03,-0.37,1.02
5.706,0.84,0.8,0.25,1.19
5.726,0.43,0.99,0.35,1.14
5.746,-0.14,1.08,0.27,1.13
5.766,-0.14,1.08,0.3,1.13
5.786,0.44,0.9,0.42,1.09
5.806,1.02,0.63,0.25,1.22
5.826,1.13,0.36,-0.11,1.19
5.846,0.83,0.51,-0.19,0.99
5.866,0.24,1.11,-0.15,1.15
5.886,-0.26,1.88,-0.06,1.9
5.906,-0.4,2.61,-0.05,2.64
5.926,-0.2,3.05,-0.21,3.07
5.946,-0.03,3.22,-0.35,3.24
5.966,-0.1,3.24,-0.45,3.27
5.986,-0.36,2.67,-0.62,2.76
6.006,-0.66,1.55,-0.94,1.93
6.026,-0.79,0.48,-1.27,1.57
6.046,-0.63,0.0,-1.28,1.42
6.066,-0.25,0.05,-1.09,1.12
6.085,0.09,0.32,-1.01,1.06
6.106,0.07,0.37,-1.07,1.14
6.125,0.01,0.18,-1.13,1.14
6.145,-0.01,0.01,-1.06,1.06
6.165,0.02,-0.23,-0.84,0.87
6.185,0.02,-0.63,-0.65,0.91
6.205,-0.07,-1.41,-0.65,1.55
6.225,-0.31,-2.35,-0.88,2.53
6.245,-0.21,-3.1,-1.19,3.33
6.265,0.17,-3.6,-1.38,3.86
6.285,0.65,-3.67,-1.33,3.96
6.305,0.68,-3.2,-1.1,3.46
6.325,0.63,-2.37,-0.81,2.58
6.345,0.51,-1.23,-0.55,1.44
6.365,0.35,-0.28,-0.33,0.56
6.385,0.22,0.25,-0.37,0.5
6.405,-0.15,0.64,-0.71,0.97
6.425,-0.65,0.78,-0.91,1.36
6.445,-0.99,0.5,-0.79,1.36
6.465,-1.21,0.19,-0.36,1.28
6.485,-1.11,0.01,-0.06,1.11
6.505,-0.83,-0.12,-0.11,0.84
6.525,-0.3,-0.3,-0.4,0.58
6.545,0.15,-0.44,-0.52,0.7
6.565,0.32,-0.39,-0.23,0.55
6.585,0.09,-0.31,-0.14,0.35
6.605,-0.11,-0.32,-0.28,0.44
6.625,-0.55,-0.18,-0.38,0.7
6.644,-1.04,-0.15,-0.43,1.13
6.665,-1.05,-0.14,-0.33,1.11
6.684,-0.64,-0.04,-0.25,0.69
6.704,-0.15,-0.05,-0.21,0.26
6.724,0.22,-0.07,-0.2,0.3
6.744,0.32,-0.03,-0.22,0.39
6.764,0.08,-0.08,-0.11,0.16
6.784,-0.21,-0.21,0.01,0.3
6.804,-0.4,-0.32,0.08,0.52
6.824,-0.28,-0.32,0.04,0.43
6.844,0.01,-0.26,0.01,0.27
6.864,0.1,-0.03,0.16,0.19
6.884,0.12,0.13,0.3,0.35
6.904,0.14,0.01,0.3,0.34
6.924,0.11,-0.18,0.26,0.34
6.944,-0.03,-0.17,0.21,0.28
6.964,-0.2,-0.14,0.28,0.37
6.984,-0.46,-0.13,0.41,0.63
7.004,-0.57,-0.12,0.51,0.77
7.024,-0.62,-0.13,0.44,0.77
7.044,-0.82,-0.16,0.24,0.87
7.064,-0.91,-0.17,0.02,0.93
7.084,-0.52,-0.11,-0.0,0.53
7.104,0.1,-0.21,0.07,0.24
7.124,0.66,-0.25,0.16,0.72
7.144,0.81,-0.13,0.31,0.87
7.164,0.5,-0.09,0.56,0.75
7.184,-0.19,-0.14,0.77,0.8
7.204,-0.85,-0.15,0.74,1.14
7.224,-0.98,-0.07,0.58,1.14
7.244,-0.77,-0.08,0.44,0.89
7.264,-0.5,-0.03,0.51,0.72
7.284,-0.38,0.24,0.67,0.81
7.304,-0.29,0.62,0.77,1.03
7.324,-0.09,1.03,0.71,1.26
7.343,0.1,1.3,0.48,1.39
7.363,0.21,1.33,0.25,1.36
7.383,0.15,1.64,-0.08,1.65
7.403,-0.02,2.32,-0.49,2.37
7.423,-0.16,3.45,-0.92,3.57
7.443,-0.23,4.72,-1.1,4.86
7.463,-0.19,4.59,-0.43,4.62
7.483,-0.62,3.74,0.32,3.8
7.503,-0.72,2.37,0.07,2.48
7.523,-0.28,0.88,-0.73,1.18
7.543,0.47,-0.39,-1.43,1.55
7.563,0.82,-0.95,-1.84,2.23
7.583,0.84,-0.61,-1.92,2.18
7.603,0.78,-0.16,-1.43,1.64
7.623,0.61,-0.28,-0.76,1.01
7.643,0.13,-0.54,-0.47,0.73
7.663,-0.29,-0.9,-0.52,1.08
7.683,-0.36,-1.33,-0.71,1.55
7.703,-0.23,-1.58,-0.87,1.82
7.723,-0.01,-1.73,-0.94,1.97
7.742,0.2,-1.81,-1.0,2.08
7.763,0.15,-1.83,-0.97,2.08
7.782,-0.21,-1.94,-0.93,2.16
7.802,-0.58,-1.98,-0.96,2.28
7.822,-0.64,-1.86,-1.04,2.23
7.842,-0.44,-1.67,-1.08,2.04
7.862,-0.09,-1.33,-1.06,1.71
7.882,0.58,-0.89,-0.95,1.42
7.902,0.94,-0.57,-0.89,1.41
7.922,1.08,-0.34,-0.79,1.38
7.942,1.06,-0.28,-0.71,1.31
7.962,1.05,-0.3,-0.73,1.32
7.982,0.91,-0.27,-0.65,1.15
8.002,0.68,-0.13,-0.43,0.81
8.022,0.31,-0.04,-0.34,0.47
8.042,0.03,-0.04,-0.39,0.39
8.062,-0.1,-0.17,-0.49,0.53
8.082,-0.18,-0.35,-0.49,0.63
8.102,-0.16,-0.46,-0.44,0.66
8.122,-0.12,-0.39,-0.42,0.59
8.142,0.01,-0.17,-0.42,0.45
8.162,0.16,-0.13,-0.41,0.46
8.182,0.18,-0.29,-0.28,0.44
8.202,0.11,-0.39,-0.23,0.47
8.222,-0.01,-0.4,-0.2,0.45
8.242,-0.07,-0.14,-0.11,0.19
8.262,0.01,-0.0,-0.0,0.01
8.282,0.07,-0.07,0.03,0.1
8.302,0.03,-0.22,0.1,0.25
8.322,0.08,-0.22,0.17,0.29
8.342,0.17,-0.1,0.25,0.32
8.361,0.16,0.04,0.28,0.33
8.381,0.06,0.1,0.35,0.36
8.404,-0.01,0.04,0.36,0.36
8.424,0.08,0.04,0.27,0.28
8.444,0.37,0.05,0.24,0.44
8.464,0.74,0.04,0.22,0.77
8.484,1.13,-0.07,0.27,1.17
8.504,1.15,0.19,0.13,1.17
8.524,0.96,0.42,-0.05,1.05
8.544,0.48,0.24,-0.23,0.58
8.564,-0.1,-0.02,-0.2,0.23
8.584,-0.38,-0.14,-0.03,0.4
8.603,-0.42,-0.16,0.15,0.47
8.624,-0.16,-0.24,0.31,0.43
8.644,0.31,-0.36,0.23,0.53
8.664,0.57,-0.55,-0.04,0.79
8.684,0.56,-0.65,-0.12,0.86
8.704,0.45,-0.45,0.1,0.65
8.724,0.32,-0.28,0.34,0.55
8.744,0.11,-0.21,0.51,0.56
8.763,0.12,-0.08,0.59,0.61
8.783,0.33,0.1,0.5,0.61
8.803,0.54,0.28,0.43,0.75
8.823,0.6,0.52,0.39,0.89
8.843,0.25,0.87,0.29,0.95
8.863,-0.01,0.99,0.33,1.05
8.883,-0.01,1.13,0.4,1.2
8.903,0.16,1.54,0.47,1.62
8.923,0.39,2.05,0.73,2.21
8.943,0.41,2.61,0.82,2.77
8.963,0.16,3.2,0.53,3.25
8.983,0.16,3.62,-0.13,3.63
9.003,0.11,3.76,-0.55,3.8
9.023,-0.12,3.74,-0.41,3.76
9.043,-0.43,3.23,-0.48,3.29
9.063,-0.53,2.17,-0.93,2.42
9.083,-0.6,0.58,-1.24,1.49
9.103,-0.64,-0.67,-1.34,1.63
9.123,-0.44,-0.86,-1.34,1.66
9.143,-0.47,-0.37,-1.26,1.4
9.163,-0.78,-0.22,-1.0,1.29
9.183,-0.94,-0.48,-0.72,1.28
9.203,-0.64,-1.06,-0.67,1.4
9.222,-0.16,-1.7,-0.82,1.9
9.242,0.1,-2.37,-1.03,2.58
9.263,0.06,-2.88,-1.08,3.08
9.282,-0.09,-3.01,-1.0,3.17
9.302,-0.44,-2.92,-0.95,3.11
9.322,-0.71,-2.61,-0.9,2.85
9.342,-0.58,-2.1,-0.81,2.33
9.362,-0.14,-1.42,-0.7,1.59
9.382,0.27,-0.93,-0.68,1.18
9.402,0.56,-0.55,-0.72,1.06
9.422,0.45,-0.17,-0.93,1.05
9.442,-0.05,-0.11,-1.05,1.06
9.462,-0.6,-0.12,-0.69,0.93
9.482,-1.1,0.01,-0.04,1.1
9.502,-1.29,0.06,0.15,1.3
9.522,-1.04,0.04,-0.14,1.05
9.542,-0.49,-0.18,-0.49,0.71
9.562,0.17,-0.54,-0.49,0.75
9.582,0.57,-0.75,-0.36,1.01
9.602,0.57,-0.82,-0.29,1.03
9.622,0.33,-0.76,-0.26,0.87
9.642,-0.32,-0.66,-0.17,0.75
9.662,-0.79,-0.45,-0.09,0.92
9.682,-0.89,-0.3,-0.07,0.95
9.702,-0.66,-0.12,-0.11,0.68
9.722,-0.43,0.1,-0.01,0.44
9.742,-0.19,0.28,0.24,0.42
9.762,-0.06,0.23,0.34,0.42
9.782,-0.02,0.14,0.37,0.4
9.802,-0.15,0.05,0.29,0.33
9.821,-0.19,-0.09,0.3,0.37
9.841,-0.11,-0.19,0.26,0.34
9.861,-0.2,0.04,0.15,0.25
9.881,-0.47,0.08,0.03,0.48
9.901,-0.39,-0.02,-0.04,0.39
9.921,-0.01,0.09,-0.08,0.12
9.941,0.35,0.25,0.03,0.43
9.961,0.35,0.24,0.12,0.44
9.981,-0.19,-0.01,0.3,0.35
10.001,-0.72,-0.13,0.52,0.9
10.021,-1.04,-0.11,0.61,1.2
10.041,-1.03,-0.21,0.43,1.14
10.061,-0.89,-0.28,0.22,0.96
10.081,-0.59,-0.16,0.16,0.63
10.101,-0.33,-0.02,0.13,0.35
10.121,-0.32,0.38,0.13,0.51
10.141,-0.32,0.67,0.2,0.77
10.161,-0.23,0.7,0.32,0.8
10.181,-0.22,1.07,0.4,1.16
10.201,-0.23,1.69,0.24,1.73
10.221,-0.23,2.58,-0.06,2.59
10.241,-0.42,3.66,-0.13,3.69
10.261,-0.27,4.0,-0.12,4.01
10.281,0.08,3.94,-0.12,3.94
10.301,0.26,3.56,-0.13,3.57
10.321,0.1,2.87,-0.13,2.87
10.341,-0.1,2.07,-0.14,2.08
10.361,-0.17,1.14,-0.41,1.22
10.38,-0.04,0.28,-0.85,0.9
10.4,0.34,-0.13,-1.31,1.36
10.42,0.97,0.14,-1.66,1.93
10.44,1.59,0.33,-1.65,2.32
10.46,1.66,0.4,-1.38,2.19
10.48,1.25,0.18,-1.01,1.62
10.5,0.42,-0.55,-0.68,0.97
10.52,-0.47,-1.43,-0.47,1.58
10.54,-1.02,-2.24,-0.55,2.52
10.56,-1.17,-3.01,-0.76,3.32
10.58,-1.04,-3.52,-1.01,3.81
10.6,-0.52,-3.64,-1.2,3.86
10.62,0.09,-3.43,-1.3,3.67
10.64,0.49,-2.95,-1.23,3.23
10.66,0.61,-2.38,-0.94,2.63
10.68,0.49,-1.67,-0.76,1.9
10.7,0.23,-0.9,-0.71,1.17
10.72,-0.18,-0.35,-0.68,0.79
10.74,-0.29,-0.06,-0.79,0.85
10.76,0.05,0.28,-0.85,0.89
10.78,0.42,0.46,-0.64,0.89
10.8,0.73,0.42,-0.39,0.93
10.82,0.73,0.18,-0.24,0.79
10.84,0.43,-0.07,-0.23,0.49
10.86,-0.01,-0.16,-0.38,0.41
10.88,-0.19,-0.11,-0.59,0.63
10.9,-0.21,-0.27,-0.72,0.8
10.92,-0.17,-0.56,-0.63,0.86
10.94,0.0,-0.71,-0.39,0.81
10.959,0.25,-0.57,-0.06,0.63
10.979,0.55,-0.11,0.21,0.6
10.999,0.54,0.19,0.34,0.67
11.019,0.38,0.13,0.34,0.53
11.039,-0.06,-0.11,0.18,0.22
11.059,-0.39,-0.17,0.18,0.46
11.079,-0.36,0.15,0.25,0.46
11.099,-0.12,0.16,0.28,0.35
11.119,0.05,-0.16,0.1,0.2
11.139,0.03,-0.4,-0.09,0.41
11.159,0.03,-0.46,-0.1,0.47
11.179,-0.11,-0.16,0.09,0.22
11.199,-0.31,-0.06,0.27,0.42
11.219,-0.48,-0.32,0.23,0.62
11.239,-0.4,-0.24,0.13,0.48
11.259,0.0,0.13,0.05,0.14
11.279,0.52,0.14,0.1,0.55
11.299,0.73,0.37,-0.13,0.83
11.319,0.66,0.45,-0.1,0.81
11.339,0.41,0.1,-0.25,0.49
11.359,-0.3,-0.02,-0.29,0.42
11.379,-0.79,0.04,-0.1,0.8
11.399,-0.62,-0.17,0.15,0.66
11.419,0.08,-0.57,0.36,0.68
11.439,0.93,-0.67,0.4,1.22
11.459,1.53,-0.5,0.31,1.64
11.479,1.45,-0.42,0.21,1.52
11.499,0.93,-0.29,0.17,0.99
11.519,0.32,-0.11,0.28,0.44
11.538,-0.1,0.02,0.49,0.5
11.558,-0.13,0.17,0.56,0.6
11.578,0.1,0.27,0.57,0.64
11.598,0.43,0.34,0.48,0.72
11.618,0.59,0.32,0.29,0.73
11.638,0.62,0.29,0.12,0.69
11.658,0.31,0.3,0.14,0.45
11.678,-0.02,0.39,0.25,0.46
11.698,-0.16,0.49,0.19,0.55
11.718,0.02,0.57,0.13,0.59
11.738,0.36,0.76,0.1,0.85
11.758,0.62,1.21,0.18,1.37
11.778,0.63,1.75,0.28,1.88
11.798,0.31,2.68,0.27,2.71
11.818,-0.05,3.78,-0.09,3.78
11.838,-0.26,4.18,-0.32,4.2
11.858,-0.1,3.72,-0.37,3.74
11.878,0.36,2.96,-0.51,3.02
11.898,0.48,2.04,-0.67,2.2
11.918,0.02,1.14,-0.93,1.47
11.938,-0.87,0.52,-1.46,1.77
11.958,-1.67,0.55,-1.79,2.51
11.978,-1.84,0.93,-1.71,2.68
11.998,-1.4,0.55,-1.26,1.96
12.015,-0.57,-0.09,-0.96,1.12
12.035,0.17,-0.82,-0.81,1.17
12.055,0.88,-1.72,-0.8,2.09
12.075,1.13,-2.7,-1.02,3.1
12.095,0.66,-3.59,-1.33,3.89
12.115,-0.04,-4.19,-1.46,4.44
12.135,-0.73,-4.32,-1.29,4.57
12.155,-1.07,-3.85,-0.97,4.11
12.175,-1.01,-2.95,-0.83,3.23
12.195,-0.61,-1.99,-0.72,2.2
12.215,0.13,-0.81,-0.56,0.99
