time,ax,ay,az,atotal
2.396,0.29,-0.71,0.64,1.0
2.416,-0.22,-0.46,0.71,0.87
2.436,-0.64,0.04,0.96,1.15
2.456,-0.81,0.16,1.22,1.47
2.477,-0.61,0.09,1.0,1.17
2.497,-0.2,-0.09,0.73,0.76
2.516,0.22,0.05,0.78,0.81
2.536,0.66,0.52,1.1,1.38
2.556,0.97,1.1,1.18,1.88
2.576,1.32,1.09,1.22,2.1
2.596,1.39,0.52,1.23,1.93
2.616,1.08,1.14,0.73,1.73
2.636,0.46,1.94,0.43,2.04
2.656,0.1,1.23,0.31,1.27
2.676,-0.07,0.59,-0.43,0.73
2.696,-0.19,0.51,-0.95,1.09
2.716,-0.5,0.76,-0.98,1.33
2.736,-0.69,0.43,-1.25,1.49
2.756,-0.66,-0.34,-1.69,1.85
2.776,-0.59,-0.98,-1.86,2.18
2.796,-0.58,-1.29,-1.68,2.2
2.816,-0.78,-0.86,-1.47,1.87
2.836,-1.19,-0.03,-0.88,1.48
2.855,-1.53,0.32,0.12,1.57
2.876,-1.67,0.11,0.33,1.71
2.896,-1.19,-0.21,-0.03,1.21
2.915,-0.2,-0.21,-0.06,0.29
2.936,0.59,-0.4,-0.13,0.72
2.955,0.93,-0.74,-0.53,1.3
2.975,0.93,-1.01,-0.84,1.61
2.995,0.72,-0.96,-0.7,1.39
3.017,0.65,-0.58,-0.19,0.89
3.035,0.09,-0.24,0.55,0.61
3.055,-0.96,0.11,1.15,1.5
3.075,-1.85,0.06,1.1,2.15
3.095,-1.95,-0.27,0.62,2.07
3.115,-1.61,-0.47,0.39,1.73
3.135,-1.06,-0.38,0.5,1.23
3.155,-0.4,-0.48,0.49,0.79
3.175,0.04,-0.33,0.33,0.47
3.195,0.3,0.04,0.43,0.53
3.215,0.17,0.24,0.55,0.62
3.235,-0.14,0.12,0.7,0.73
3.255,-0.38,-0.2,0.65,0.78
3.275,-0.75,-0.17,0.57,0.96
3.295,-1.27,0.72,0.51,1.55
3.315,-1.66,1.92,0.59,2.6
3.335,-1.41,1.69,0.67,2.3
3.355,-1.0,1.24,0.01,1.59
3.375,-0.33,1.31,-0.45,1.43
3.395,0.21,0.94,-0.66,1.17
3.415,0.37,0.41,-0.95,1.1
3.435,0.32,-0.3,-1.28,1.36
3.455,0.23,-0.77,-1.57,1.76
3.475,0.07,-0.84,-1.67,1.87
3.495,-0.1,-0.69,-1.6,1.74
3.515,-0.24,-0.22,-1.53,1.57
3.535,-0.09,0.6,-1.08,1.24
3.554,0.27,1.06,-0.55,1.22
3.574,0.66,1.12,-0.55,1.41
3.594,0.93,0.89,-0.79,1.51
3.615,1.01,0.56,-0.98,1.51
3.635,0.77,0.08,-0.94,1.22
3.654,0.57,-0.16,-0.75,0.95
3.674,0.22,-0.35,-0.39,0.56
3.694,-0.32,-0.65,-0.27,0.77
3.714,-0.76,-0.86,-0.32,1.19
3.734,-0.9,-0.86,-0.5,1.34
3.754,-0.63,-0.69,-0.54,1.08
3.774,-0.01,-0.45,-0.25,0.51
3.794,0.75,-0.09,0.02,0.76
3.814,1.16,0.01,-0.03,1.16
3.834,1.12,-0.32,-0.2,1.18
3.854,1.03,-0.63,-0.22,1.23
3.874,0.99,-0.78,-0.17,1.27
3.894,1.0,-0.72,-0.02,1.23
3.914,0.64,-0.65,0.14,0.92
3.934,-0.04,-0.63,0.36,0.73
3.954,-0.62,-0.28,0.5,0.84
3.974,-0.87,0.21,0.5,1.02
3.994,-0.72,0.37,0.41,0.91
4.014,-0.28,0.22,0.58,0.68
4.034,0.41,0.09,0.84,0.94
4.054,1.05,-0.12,0.85,1.35
4.073,1.4,-0.31,0.72,1.61
4.094,1.49,-0.5,0.65,1.7
4.114,1.17,-0.57,0.74,1.5
4.133,0.56,-0.4,0.9,1.13
4.153,-0.05,0.26,0.89,0.93
4.173,-0.46,0.8,0.93,1.31
4.194,-0.51,1.06,0.84,1.45
4.213,-0.27,1.9,0.47,1.97
4.233,0.22,2.28,0.34,2.32
4.253,0.65,1.6,0.2,1.74
4.273,0.83,1.28,-0.19,1.54
4.293,0.82,1.11,-0.81,1.6
4.313,0.6,0.59,-1.2,1.46
4.333,0.16,0.06,-1.19,1.2
4.353,-0.09,-0.42,-1.07,1.15
4.373,-0.06,-0.89,-1.0,1.34
4.393,0.0,-1.16,-0.99,1.53
4.413,-0.08,-1.08,-1.1,1.54
4.433,-0.28,-0.69,-1.22,1.43
4.453,-0.62,-0.28,-1.09,1.28
4.473,-1.11,-0.04,-0.84,1.39
4.493,-1.49,0.33,-0.69,1.68
4.513,-1.54,0.62,-0.47,1.73
4.533,-1.28,0.59,-0.25,1.43
4.553,-0.84,0.22,-0.31,0.93
4.573,-0.19,-0.14,-0.28,0.37
4.593,0.28,-0.38,-0.11,0.48
4.613,0.38,-0.58,-0.03,0.7
4.633,0.18,-0.89,-0.04,0.91
4.653,-0.29,-1.2,-0.03,1.23
4.673,-0.75,-1.01,-0.07,1.27
4.693,-0.92,-0.79,-0.26,1.24
4.713,-1.06,-0.41,-0.22,1.16
4.733,-0.78,-0.66,0.2,1.04
4.753,-0.69,-0.35,0.57,0.96
4.773,-0.54,0.05,0.59,0.8
4.793,-0.39,-0.08,0.66,0.77
4.813,-0.24,-0.4,0.73,0.87
4.833,-0.04,-0.7,0.64,0.95
4.853,0.22,-0.5,0.72,0.9
4.873,0.5,-0.32,0.38,0.7
4.892,-0.14,-0.04,0.54,0.55
4.912,-0.1,0.07,0.83,0.84
4.932,-0.32,0.03,0.97,1.02
4.952,-0.62,0.03,1.06,1.23
4.972,-1.0,-0.05,0.99,1.4
4.992,-0.71,0.14,1.05,1.27
5.012,-0.6,0.46,1.09,1.32
5.032,-0.74,0.61,1.07,1.44
5.052,-0.42,0.52,0.75,1.01
5.072,-0.31,0.98,0.47,1.13
5.092,-0.44,0.95,0.43,1.13
5.112,-0.25,0.58,0.46,0.79
5.132,-0.32,0.72,0.46,0.91
5.152,-0.5,0.96,0.41,1.16
5.172,-0.54,0.83,-0.09,0.99
5.192,-0.26,0.59,-0.79,1.02
5.212,0.18,0.21,-1.12,1.15
5.232,0.8,-0.36,-1.4,1.65
5.252,0.48,-0.65,-1.86,2.02
5.272,0.53,-0.99,-1.89,2.2
5.292,0.54,-0.93,-1.45,1.8
5.312,0.19,-0.56,-0.71,0.92
5.332,0.18,-0.08,-0.27,0.34
5.352,0.19,0.2,-0.2,0.34
5.372,0.04,0.51,-0.17,0.54
5.392,0.22,0.46,-0.08,0.52
5.412,0.46,0.35,0.29,0.64
5.432,0.37,-0.14,0.26,0.47
5.452,-0.04,-0.74,-0.03,0.74
5.472,-0.13,-1.1,-0.17,1.12
5.492,0.32,-1.31,-0.1,1.35
5.511,0.49,-1.21,-0.07,1.3
5.531,0.18,-0.88,-0.01,0.9
5.551,0.14,-0.53,0.34,0.64
5.571,0.3,-0.31,0.59,0.73
5.591,0.56,-0.12,0.78,0.97
5.611,0.77,-0.08,0.89,1.18
5.631,0.69,-0.22,0.82,1.1
5.651,0.6,-0.46,0.61,0.97
5.671,0.52,-0.63,0.3,0.87
5.691,0.48,-0.46,0.05,0.66
5.711,0.42,0.05,0.35,0.55
5.731,0.41,0.58,0.97,1.2
5.751,0.2,0.57,1.43,1.56
5.771,-0.04,0.59,1.11,1.26
5.791,0.14,1.28,0.91,1.58
5.811,0.39,1.33,1.13,1.79
5.831,0.5,1.6,0.81,1.86
5.851,0.59,2.28,0.19,2.37
5.871,-0.02,1.84,-0.47,1.9
5.891,0.2,0.96,-0.68,1.19
5.911,-0.32,0.84,-0.78,1.19
5.931,-0.29,0.5,-0.94,1.1
5.951,-0.38,-0.38,-0.97,1.11
5.971,-0.55,-1.18,-1.09,1.7
5.991,-0.46,-1.35,-1.08,1.79
6.011,-0.45,-0.84,-1.05,1.42
6.031,-0.44,-0.05,-0.93,1.03
6.051,-0.53,0.44,-0.88,1.12
6.071,-0.31,0.4,-0.97,1.09
6.09,-0.24,0.07,-0.78,0.82
6.111,-0.33,-0.22,-0.42,0.57
6.131,-0.14,-0.41,-0.23,0.49
6.151,0.09,-0.73,-0.27,0.78
6.17,0.26,-1.02,-0.17,1.07
6.19,0.22,-1.15,-0.11,1.17
6.21,-0.23,-1.2,-0.16,1.23
6.231,-0.58,-0.92,-0.02,1.08
6.25,-0.47,-0.62,0.22,0.81
6.27,-0.31,-0.26,0.26,0.48
6.29,-0.13,0.13,0.44,0.48
6.311,-0.32,0.24,0.72,0.83
6.33,-0.46,0.01,0.93,1.04
6.35,-0.57,-0.3,1.03,1.21
6.37,-0.51,-0.73,0.89,1.26
6.39,-0.13,-0.96,0.63,1.15
6.41,-0.09,-0.96,0.28,1.01
6.43,-0.39,-0.7,0.19,0.82
6.45,-0.46,-0.35,0.38,0.69
6.47,-0.48,-0.15,0.84,0.98
6.49,-0.73,0.05,1.06,1.29
6.51,-0.81,0.46,0.74,1.19
6.53,-0.89,1.29,0.72,1.72
6.55,-1.15,1.51,1.19,2.24
6.57,-0.68,1.55,0.85,1.9
6.59,-0.49,1.6,0.32,1.7
6.61,-0.38,1.13,0.31,1.24
6.63,-0.12,0.8,0.34,0.88
6.65,0.15,0.56,0.09,0.58
6.67,0.39,0.58,-0.41,0.81
6.69,0.59,0.37,-0.88,1.13
6.71,0.62,0.01,-1.48,1.61
6.73,0.61,-0.42,-1.67,1.83
6.75,0.75,-0.6,-1.49,1.77
6.77,0.92,-0.58,-1.34,1.73
6.79,0.92,-0.07,-1.04,1.4
6.81,0.85,0.54,-0.56,1.15
6.83,0.88,0.77,-0.32,1.21
6.849,-0.18,0.33,-0.3,0.48
6.869,-0.47,-0.25,-0.25,0.58
6.889,0.1,-0.77,-0.26,0.82
6.909,0.6,-1.04,-0.38,1.26
6.929,0.4,-1.52,-0.24,1.59
6.949,0.3,-1.77,-0.06,1.8
6.969,0.43,-1.49,0.05,1.56
6.989,0.74,-1.04,0.21,1.29
7.009,1.04,-0.51,0.21,1.18
7.029,0.41,-0.25,0.32,0.58
7.049,0.13,0.27,0.65,0.72
7.069,-0.09,0.33,1.04,1.09
7.089,-0.2,0.26,1.34,1.38
7.109,0.31,-0.17,1.01,1.07
7.129,0.33,0.03,0.36,0.49
7.149,0.61,0.33,0.17,0.72
7.169,0.33,-0.12,0.46,0.58
7.189,0.48,-0.12,0.71,0.86
7.209,0.73,0.15,0.6,0.96
7.229,0.26,0.6,0.32,0.73
7.249,-0.14,1.07,0.68,1.28
7.269,-0.1,1.2,0.95,1.53
7.289,-0.21,1.92,0.28,1.95
7.309,0.15,2.12,-0.73,2.24
7.329,-0.38,1.38,-1.39,2.0
7.349,-0.5,0.65,-1.28,1.52
7.369,-0.55,0.26,-1.17,1.32
7.389,-0.38,-0.01,-0.93,1.0
7.409,-0.37,-0.62,-0.71,1.01
7.429,-0.44,-1.1,-0.73,1.39
7.449,-0.59,-1.04,-0.99,1.55
7.469,-0.9,-0.33,-0.9,1.32
7.489,-0.85,0.39,-0.26,0.97
7.508,-0.62,0.64,-0.12,0.9
7.528,-0.32,0.4,-0.32,0.6
7.548,-0.08,-0.11,-0.19,0.24
7.568,0.13,-0.54,-0.19,0.59
7.588,-0.08,-0.88,-0.2,0.91
7.608,0.22,-1.24,-0.11,1.27
7.628,0.04,-1.51,-0.12,1.52
7.648,-0.28,-1.5,-0.13,1.53
7.668,-0.43,-1.25,-0.1,1.33
7.688,-0.69,-0.86,0.1,1.11
7.708,-0.85,-0.48,0.37,1.04
7.728,-0.83,-0.18,0.53,1.0
7.748,-0.6,0.09,0.53,0.8
7.768,-0.5,0.14,0.79,0.95
7.788,-0.14,0.05,1.27,1.28
7.808,-0.53,-0.35,1.31,1.46
7.828,-0.75,-0.47,0.93,1.28
7.848,-0.5,-0.21,0.61,0.82
7.868,-0.63,-0.09,0.59,0.87
7.888,-0.5,0.07,0.68,0.85
7.908,-0.48,0.33,0.89,1.07
7.928,-0.44,0.39,1.12,1.27
7.948,-0.44,0.73,1.03,1.34
7.968,-0.57,0.7,1.13,1.45
7.988,-0.71,0.21,1.09,1.31
8.008,-0.63,0.19,0.35,0.74
8.027,-0.68,0.11,-0.25,0.73
8.048,-0.78,0.04,-0.26,0.82
8.067,-0.72,0.46,0.13,0.87
8.087,-0.59,0.91,0.09,1.09
8.107,-0.12,1.13,-0.25,1.16
8.127,0.13,1.42,-0.92,1.69
8.147,0.22,1.27,-1.32,1.85
8.167,1.88,0.71,-1.18,2.33
8.187,1.04,0.12,-1.13,1.54
8.207,1.25,-0.02,-1.21,1.74
8.227,1.52,0.13,-0.95,1.8
8.247,1.09,0.23,-0.44,1.2
8.267,0.42,0.18,-0.42,0.62
8.287,-0.02,-0.15,-0.78,0.79
8.307,-0.02,-0.41,-0.79,0.89
8.327,0.05,-0.63,-0.55,0.84
8.347,0.22,-0.9,-0.22,0.95
8.367,0.26,-1.19,0.1,1.22
8.387,0.39,-1.39,0.31,1.48
8.407,0.56,-1.41,0.18,1.53
8.427,0.76,-1.37,0.0,1.56
8.447,0.69,-1.16,0.14,1.36
8.467,0.59,-0.91,0.33,1.13
8.487,0.27,-0.59,0.49,0.82
8.507,0.01,-0.28,0.6,0.66
8.527,-0.14,0.31,0.89,0.95
8.547,-0.15,0.38,1.16,1.23
8.567,0.54,0.13,0.98,1.12
8.587,0.32,0.56,0.58,0.87
8.607,0.19,0.85,0.28,0.92
8.627,0.4,0.64,0.36,0.84
8.647,0.54,0.25,0.52,0.79
8.667,0.46,-0.02,0.75,0.88
8.687,0.39,0.05,0.85,0.94
8.707,0.25,0.75,0.69,1.05
8.727,0.33,1.29,0.88,1.6
8.746,0.19,1.66,0.54,1.76
8.766,-0.2,1.97,-0.36,2.02
8.786,0.5,1.44,-0.93,1.78
8.806,0.2,0.76,-1.33,1.55
8.826,-0.18,0.47,-1.41,1.49
8.846,-0.66,0.13,-1.0,1.21
8.866,-1.01,-0.62,-0.81,1.43
8.886,-1.05,-1.29,-0.89,1.89
8.906,-0.96,-1.46,-0.95,1.99
8.926,-0.79,-0.92,-1.03,1.59
8.946,-0.83,-0.12,-0.68,1.08
8.966,-0.72,0.56,-0.12,0.92
8.986,-0.47,0.83,-0.01,0.96
9.006,0.1,0.22,-0.26,0.35
9.026,0.28,-0.26,-0.5,0.63
9.046,0.22,-0.49,-0.49,0.73
9.066,0.16,-0.94,-0.33,1.01
9.086,-0.23,-1.24,-0.22,1.28
9.106,-0.18,-1.17,-0.16,1.2
9.126,-0.51,-0.94,-0.26,1.11
9.146,-0.85,-0.45,-0.17,0.97
9.166,-0.98,-0.13,0.23,1.01
9.186,-0.76,0.14,0.54,0.95
9.206,-0.25,0.46,0.78,0.94
9.226,-0.24,-0.23,0.74,0.81
9.246,-0.32,-0.41,0.61,0.8
9.266,-0.46,-0.69,0.69,1.07
9.286,-0.39,-0.8,0.56,1.05
9.306,-0.56,-0.59,0.16,0.82
9.326,-0.71,-0.43,0.12,0.84
9.346,-0.99,-0.36,0.36,1.11
9.366,-0.71,-0.09,0.53,0.89
9.386,-0.84,0.14,0.74,1.13
9.406,-0.97,0.47,0.84,1.37
9.426,-0.87,0.84,0.84,1.47
9.445,-0.69,0.91,1.14,1.62
9.465,-0.84,0.7,1.2,1.62
9.485,-0.82,1.09,0.24,1.39
9.505,-0.46,1.08,-0.4,1.24
9.525,-0.24,0.95,-0.42,1.06
9.545,0.02,1.05,-0.49,1.15
9.565,0.27,0.86,-0.55,1.06
9.585,0.54,0.61,-0.9,1.21
9.605,0.67,0.02,-1.22,1.4
9.625,0.59,-0.67,-1.31,1.59
9.645,0.52,-1.2,-1.18,1.76
9.665,0.66,-1.13,-1.09,1.7
9.685,0.75,-0.48,-0.98,1.32
9.705,0.75,0.44,-0.57,1.04
9.725,0.76,0.87,-0.09,1.16
9.745,0.96,1.07,0.03,1.44
9.765,0.68,0.28,-0.08,0.74
9.785,-0.09,-0.25,-0.22,0.34
9.805,-0.14,-0.59,-0.19,0.63
9.825,-0.15,-0.98,-0.11,1.0
9.845,-0.25,-1.27,-0.09,1.3
9.865,0.08,-1.25,-0.22,1.27
9.885,0.37,-0.85,-0.24,0.96
9.905,0.36,-0.41,0.11,0.55
9.925,0.26,-0.11,0.55,0.61
9.945,0.38,0.14,0.71,0.82
9.965,0.58,0.13,0.67,0.89
9.985,0.59,-0.09,0.58,0.83
10.005,0.52,-0.15,0.36,0.65
10.025,0.49,-0.01,0.13,0.51
10.044,0.25,0.08,0.08,0.28
10.065,0.19,0.02,0.25,0.31
10.084,0.35,0.17,0.38,0.54
10.104,0.33,0.29,0.55,0.71
10.124,0.24,0.16,0.81,0.86
10.144,0.21,0.11,0.92,0.95
10.164,0.1,0.29,0.65,0.72
10.184,0.21,0.42,0.74,0.87
10.204,0.16,0.56,0.69,0.9
10.224,0.02,0.85,0.0,0.85
10.244,-0.0,0.79,-0.42,0.9
10.264,0.07,0.6,-0.36,0.7
10.284,0.08,0.57,-0.2,0.61
10.304,-0.07,0.6,-0.33,0.69
10.324,-0.22,0.56,-0.52,0.8
10.344,-0.29,0.27,-0.67,0.78
10.364,-0.26,-0.13,-0.87,0.91
10.384,-0.41,-0.56,-1.02,1.24
10.404,-0.56,-0.79,-1.02,1.41
10.424,-0.74,-0.74,-1.0,1.45
10.444,-1.06,-0.58,-0.93,1.52
10.464,-1.38,-0.36,-0.96,1.72
10.484,-1.46,-0.28,-0.73,1.65
10.504,-0.97,-0.07,-0.39,1.04
10.524,-0.58,0.22,-0.29,0.69
10.544,-0.23,0.53,-0.07,0.58
10.564,-0.09,0.55,0.35,0.66
10.584,-0.04,0.26,0.64,0.69
10.604,-0.01,-0.15,0.53,0.56
10.624,-0.02,-0.56,0.26,0.62
10.644,0.05,-0.86,0.11,0.87
10.664,0.0,-1.01,0.13,1.02
10.684,-0.36,-0.93,0.17,1.01
10.704,-0.92,-0.72,0.32,1.21
10.724,-0.91,-0.42,0.63,1.19
10.743,-0.6,-0.18,0.89,1.09
10.763,-0.63,-0.17,0.81,1.04
10.783,-0.65,-0.29,0.66,0.98
10.803,-0.64,-0.18,0.31,0.73
10.823,-0.57,0.22,0.22,0.65
10.843,-0.43,0.65,0.62,1.0
10.863,-0.41,0.87,0.92,1.33
10.883,-0.49,0.89,0.89,1.35
10.903,-0.63,0.94,0.56,1.26
10.923,-0.47,0.98,0.72,1.3
10.943,-0.4,0.79,0.89,1.26
10.963,-0.42,0.62,0.52,0.91
10.983,-0.28,0.06,0.11,0.31
11.003,-0.15,-0.41,-0.16,0.46
11.023,-0.2,-0.57,-0.32,0.68
11.043,-0.26,-0.03,-0.33,0.42
11.063,-0.14,0.33,-0.29,0.46
11.083,-0.47,0.67,-0.42,0.92
11.103,-0.73,0.96,-0.69,1.39
11.123,0.49,0.47,-1.23,1.41
11.143,1.23,0.14,-1.49,1.94
11.163,0.7,0.12,-1.12,1.33
11.183,0.73,-0.26,-0.96,1.24
11.203,0.91,-0.76,-0.88,1.48
11.223,0.64,-0.96,-0.88,1.45
11.243,0.39,-0.68,-0.51,0.94
11.263,0.51,-0.17,-0.19,0.57
11.283,0.43,0.32,0.12,0.55
11.303,0.48,0.49,0.11,0.7
11.323,0.46,0.28,-0.07,0.54
11.343,0.22,-0.17,0.06,0.28
11.363,-0.06,-0.55,0.19,0.58
11.382,-0.07,-0.84,0.23,0.88
11.402,-0.04,-1.06,0.0,1.06
11.422,0.07,-1.12,-0.26,1.15
11.442,0.23,-1.0,-0.32,1.08
11.462,0.22,-0.7,0.08,0.74
11.482,0.27,-0.27,0.5,0.63
11.502,0.31,0.21,0.76,0.84
11.522,0.34,0.38,0.91,1.04
11.542,0.44,0.16,1.06,1.16
11.562,0.5,-0.19,1.11,1.23
11.582,0.7,-0.4,0.64,1.03
11.602,0.84,-0.31,0.1,0.9
11.622,0.82,-0.35,-0.13,0.9
11.642,0.73,-0.28,0.15,0.8
11.662,0.87,0.01,0.51,1.01
11.682,0.87,0.26,0.57,1.07
11.702,0.74,0.59,0.62,1.13
11.722,0.42,0.95,0.8,1.31
11.742,0.17,1.02,1.0,1.44
11.762,-0.27,1.46,0.69,1.64
11.782,-0.54,1.58,0.14,1.68
11.802,-0.37,1.3,-0.13,1.36
11.822,-0.27,1.06,-0.29,1.13
11.842,0.46,0.77,-0.57,1.06
11.862,0.37,0.61,-0.77,1.05
11.882,0.09,0.23,-0.98,1.01
11.902,0.1,-0.39,-1.03,1.1
11.922,-0.19,-1.19,-1.17,1.68
11.942,-0.42,-1.66,-1.23,2.1
11.962,-0.57,-1.77,-1.09,2.15
11.982,-0.78,-1.3,-0.69,1.66
12.002,-0.91,-0.41,-0.68,1.21
12.021,-1.03,0.09,-0.64,1.21
12.041,-0.95,0.58,-0.48,1.21
12.061,-0.7,0.98,-0.22,1.22
12.081,-0.22,0.96,0.13,0.99
12.101,0.17,0.72,0.45,0.87
12.121,0.19,0.19,0.46,0.54
12.141,-0.12,-0.24,0.23,0.35
12.161,-0.69,-0.73,0.05,1.01
12.181,-0.52,-1.09,-0.24,1.23
12.201,-0.49,-1.32,-0.27,1.43
12.221,-0.52,-1.3,-0.22,1.41
12.241,-0.47,-0.83,0.09,0.96
12.261,-0.39,-0.34,0.62,0.8
12.281,-0.42,-0.06,0.86,0.96
12.301,-0.59,-0.21,0.74,0.96
12.321,-0.44,-0.48,0.56,0.86
12.341,-0.35,-0.62,0.48,0.86
12.361,-0.52,-0.73,0.46,1.01
