time,ax,ay,az,atotal
2.356,-0.05,0.0,-0.03,0.06
2.376,0.0,-0.05,-0.08,0.09
2.396,-0.04,-0.03,-0.07,0.09
2.416,0.08,-0.08,-0.06,0.12
2.436,-0.02,-0.01,0.01,0.02
2.456,-0.0,-0.02,0.03,0.04
2.476,-0.02,-0.03,0.01,0.04
2.496,0.05,-0.07,-0.06,0.11
2.516,-0.02,0.02,-0.02,0.03
2.536,-0.0,-0.02,0.01,0.02
2.556,-0.04,-0.04,0.0,0.05
2.576,-0.03,-0.07,-0.04,0.09
2.596,0.0,-0.06,-0.02,0.06
2.616,-0.02,-0.05,-0.02,0.06
2.636,0.03,-0.04,0.03,0.06
2.656,-0.01,-0.03,0.01,0.03
2.676,0.05,-0.03,-0.04,0.07
2.696,-0.0,-0.01,-0.05,0.06
2.716,0.01,-0.01,-0.06,0.06
2.736,-0.02,-0.04,-0.02,0.05
2.756,0.04,-0.04,-0.02,0.06
2.776,-0.07,-0.03,-0.04,0.08
2.796,-0.01,-0.01,0.07,0.07
2.816,0.03,-0.06,0.03,0.07
2.836,0.01,-0.02,-0.07,0.08
2.856,-0.02,-0.01,-0.09,0.09
2.876,0.01,-0.01,-0.04,0.04
2.895,-0.01,-0.02,0.03,0.04
2.915,0.01,-0.04,0.0,0.04
2.935,-0.04,-0.02,-0.02,0.05
2.955,0.03,-0.03,-0.03,0.05
2.975,-0.05,-0.01,-0.05,0.07
2.995,0.04,-0.04,-0.02,0.06
3.015,0.01,-0.05,-0.0,0.05
3.035,-0.04,-0.05,-0.02,0.06
3.055,0.03,-0.01,-0.0,0.03
3.075,-0.01,-0.01,-0.0,0.02
3.095,0.01,-0.01,-0.05,0.05
3.115,0.04,-0.04,-0.08,0.09
3.135,-0.0,-0.0,-0.02,0.02
3.155,0.0,-0.05,-0.0,0.05
3.175,-0.05,-0.03,0.02,0.06
3.195,-0.02,-0.08,0.04,0.09
3.215,-0.0,-0.07,-0.0,0.07
3.235,0.03,-0.07,-0.04,0.09
3.255,-0.0,-0.01,-0.04,0.04
3.275,0.01,-0.0,-0.01,0.02
3.295,-0.0,-0.0,-0.01,0.01
3.315,0.0,-0.01,-0.02,0.02
3.335,0.03,-0.03,-0.03,0.05
3.355,-0.04,-0.03,-0.03,0.05
3.375,-0.01,-0.04,-0.02,0.05
3.395,-0.03,-0.05,-0.01,0.06
3.415,-0.02,-0.04,-0.0,0.04
3.435,0.01,-0.03,-0.0,0.03
3.455,0.02,-0.04,-0.02,0.05
3.475,0.02,-0.01,-0.04,0.04
3.494,-0.01,-0.0,-0.05,0.05
3.515,-0.03,-0.02,-0.05,0.06
3.534,-0.01,-0.04,-0.02,0.04
3.554,-0.04,-0.04,0.04,0.07
3.574,-0.0,-0.02,0.01,0.02
3.594,0.04,-0.05,-0.07,0.1
3.614,0.0,-0.02,-0.08,0.08
3.634,0.01,-0.03,-0.02,0.04
3.654,-0.02,-0.02,0.02,0.04
3.674,0.01,-0.03,0.03,0.04
3.694,-0.01,-0.05,0.01,0.05
3.714,-0.03,-0.05,-0.04,0.07
3.734,-0.0,-0.01,-0.07,0.07
3.754,0.01,0.0,-0.06,0.06
3.774,0.0,-0.04,-0.04,0.05
3.794,0.02,-0.0,-0.04,0.04
3.814,0.06,-0.02,-0.01,0.06
3.834,-0.01,-0.03,0.01,0.03
3.854,-0.03,-0.06,0.01,0.07
3.874,-0.05,-0.07,0.01,0.09
3.894,-0.04,-0.06,0.04,0.08
3.914,0.05,-0.06,0.01,0.08
3.934,0.01,-0.02,-0.05,0.06
3.954,-0.03,0.0,-0.08,0.09
3.974,0.11,-0.06,-0.05,0.13
3.994,-0.05,-0.0,-0.02,0.05
4.014,-0.01,-0.02,0.02,0.03
4.034,-0.01,-0.03,0.03,0.05
4.054,-0.02,-0.05,-0.03,0.06
4.074,0.02,-0.04,-0.07,0.09
4.094,-0.02,-0.02,-0.08,0.09
4.113,0.01,-0.04,0.01,0.04
4.134,0.02,-0.03,0.01,0.03
4.153,-0.02,-0.03,0.01,0.04
4.173,0.04,-0.03,0.02,0.05
4.193,-0.02,-0.01,-0.02,0.03
4.213,0.0,-0.03,-0.05,0.06
4.233,-0.04,-0.04,-0.09,0.1
4.253,0.01,-0.04,-0.06,0.07
4.273,-0.0,-0.03,-0.01,0.03
4.293,0.0,-0.02,-0.0,0.02
4.313,0.03,-0.04,0.01,0.05
4.333,-0.02,-0.01,0.01,0.02
4.353,0.0,-0.03,-0.01,0.03
4.373,0.04,-0.05,-0.05,0.08
4.393,-0.05,-0.04,-0.04,0.08
4.413,0.0,-0.05,-0.01,0.05
4.433,-0.01,-0.03,-0.0,0.03
4.453,-0.02,0.02,0.01,0.03
4.473,0.03,-0.02,-0.05,0.06
4.493,0.02,-0.0,-0.07,0.07
4.513,0.0,-0.02,-0.02,0.03
4.533,-0.04,0.0,0.03,0.05
4.553,-0.01,-0.05,0.03,0.06
4.573,-0.05,-0.06,0.01,0.08
4.593,-0.03,-0.06,0.02,0.07
4.613,0.02,-0.04,-0.04,0.06
4.633,0.04,-0.02,-0.09,0.1
4.653,0.05,-0.02,-0.1,0.11
4.673,0.04,-0.01,-0.08,0.09
4.693,0.05,0.01,-0.01,0.05
4.713,-0.0,-0.0,0.02,0.02
4.733,-0.06,0.0,-0.01,0.06
4.753,-0.04,-0.02,-0.1,0.11
4.773,-0.03,-0.04,-0.11,0.12
4.792,0.02,-0.07,0.05,0.08
4.813,-0.01,-0.12,0.17,0.21
4.832,-0.04,-0.1,0.2,0.23
4.852,-0.01,-0.06,0.1,0.12
4.872,0.04,-0.05,-0.05,0.08
4.892,0.06,-0.01,-0.15,0.16
4.912,-0.02,-0.02,-0.14,0.14
4.932,-0.05,-0.01,-0.08,0.09
4.952,-0.03,0.03,-0.0,0.04
4.972,-0.01,-0.03,0.04,0.05
4.992,0.03,-0.04,0.0,0.06
5.012,0.03,-0.03,-0.06,0.08
5.032,0.02,0.04,-0.07,0.08
5.052,0.03,-0.02,-0.01,0.04
5.072,-0.02,-0.07,-0.0,0.07
5.092,-0.06,-0.07,-0.04,0.1
5.112,0.01,-0.06,0.01,0.07
5.132,0.02,-0.01,0.03,0.04
5.152,0.01,0.01,-0.05,0.05
5.172,-0.01,-0.02,-0.11,0.11
5.192,-0.02,-0.03,-0.05,0.06
5.212,-0.03,-0.04,0.02,0.05
5.232,-0.03,-0.04,-0.04,0.07
5.252,-0.02,-0.04,-0.09,0.1
5.272,-0.01,-0.06,0.0,0.06
5.292,-0.03,-0.06,0.02,0.07
5.312,0.0,-0.05,-0.02,0.05
5.332,0.03,-0.04,-0.05,0.07
5.352,0.01,0.0,-0.06,0.06
5.372,0.03,-0.03,-0.03,0.05
5.392,0.03,-0.02,0.03,0.05
5.412,0.0,-0.03,0.03,0.04
5.432,-0.03,-0.02,-0.02,0.04
5.452,-0.03,-0.02,-0.08,0.08
5.471,0.02,-0.03,-0.1,0.11
5.491,-0.01,-0.04,-0.05,0.07
5.511,-0.01,-0.02,0.02,0.03
5.531,0.0,-0.02,0.0,0.02
5.551,0.04,-0.01,-0.05,0.06
5.571,-0.04,0.02,-0.1,0.11
5.591,-0.0,-0.01,-0.1,0.1
5.611,-0.02,-0.01,-0.04,0.05
5.631,-0.02,-0.03,0.06,0.07
5.651,0.01,-0.04,0.05,0.06
5.671,0.01,-0.06,-0.0,0.06
5.691,0.01,-0.05,-0.04,0.06
5.711,0.0,-0.06,0.0,0.06
5.731,0.03,-0.06,0.03,0.07
5.751,0.0,-0.07,-0.02,0.07
5.771,-0.0,-0.02,-0.05,0.05
5.791,-0.01,0.01,-0.06,0.06
5.811,0.0,0.02,-0.1,0.1
5.831,-0.05,0.0,-0.12,0.13
5.851,0.01,-0.02,-0.08,0.08
5.871,0.04,0.0,0.01,0.04
5.891,-0.01,0.0,0.07,0.08
5.911,-0.02,-0.05,0.08,0.09
5.931,0.0,-0.1,-0.02,0.1
5.951,-0.07,-0.07,-0.09,0.13
5.971,-0.04,-0.05,-0.04,0.08
5.99,0.05,-0.07,0.03,0.09
6.011,0.08,-0.01,0.05,0.1
6.031,0.07,-0.03,0.01,0.08
6.05,-0.0,0.01,-0.06,0.06
6.07,-0.04,0.03,-0.07,0.09
6.09,-0.02,-0.01,-0.07,0.07
6.111,-0.02,-0.02,-0.06,0.07
6.13,-0.01,-0.01,-0.04,0.04
6.15,0.01,-0.04,-0.01,0.05
6.17,-0.03,-0.04,-0.02,0.05
6.19,-0.02,-0.05,0.02,0.05
6.21,-0.02,-0.05,0.06,0.08
6.23,0.0,-0.05,-0.02,0.05
6.25,0.0,-0.02,-0.09,0.09
6.27,-0.0,0.01,-0.05,0.05
6.29,-0.01,-0.02,-0.01,0.02
6.31,0.04,-0.06,-0.01,0.07
6.33,-0.04,-0.03,0.05,0.06
6.35,-0.03,-0.01,0.07,0.08
6.37,0.04,-0.03,-0.01,0.05
6.39,0.03,-0.03,-0.07,0.08
6.41,0.02,-0.02,-0.12,0.12
6.43,-0.02,-0.03,-0.13,0.14
6.45,-0.01,-0.03,-0.05,0.06
6.47,0.0,-0.02,0.07,0.07
6.49,-0.01,-0.04,0.08,0.09
6.51,-0.03,-0.01,-0.02,0.04
6.53,0.0,-0.02,-0.06,0.06
6.55,-0.0,-0.02,-0.07,0.07
6.57,-0.02,-0.06,-0.02,0.06
6.59,-0.03,-0.07,-0.01,0.08
6.61,-0.0,-0.08,0.01,0.08
6.63,-0.01,-0.06,0.02,0.06
6.65,0.0,-0.05,0.01,0.05
6.67,-0.01,-0.03,-0.04,0.05
6.689,0.01,0.0,0.01,0.01
6.709,0.06,-0.04,0.06,0.1
6.729,-0.0,0.01,-0.02,0.02
6.749,0.03,-0.02,-0.08,0.09
6.769,-0.0,-0.04,-0.08,0.08
6.789,-0.04,-0.03,-0.02,0.05
6.809,0.01,-0.04,0.03,0.05
6.829,-0.03,-0.03,0.02,0.05
6.849,0.04,-0.05,-0.03,0.06
6.869,-0.03,-0.03,-0.08,0.09
6.889,0.02,-0.02,-0.04,0.05
6.909,-0.01,-0.03,-0.02,0.03
6.929,-0.01,-0.03,0.01,0.03
6.949,-0.01,-0.02,-0.0,0.02
6.969,-0.02,-0.02,-0.01,0.03
6.989,-0.03,-0.03,-0.03,0.05
7.009,-0.04,-0.01,-0.03,0.06
7.029,0.06,-0.06,-0.04,0.1
7.049,-0.01,-0.03,-0.01,0.04
7.069,0.02,-0.04,-0.05,0.07
7.089,-0.03,-0.05,-0.02,0.06
7.109,0.01,-0.02,0.04,0.04
7.129,-0.03,0.0,-0.01,0.03
7.149,-0.0,-0.01,-0.05,0.05
7.169,0.06,-0.03,-0.06,0.09
7.189,-0.01,0.0,-0.06,0.06
7.209,-0.03,-0.03,-0.04,0.06
7.229,-0.02,-0.06,0.01,0.06
7.249,0.03,-0.09,0.03,0.1
7.269,-0.06,-0.05,-0.0,0.08
7.289,-0.01,-0.02,0.01,0.03
7.308,0.02,-0.04,-0.05,0.07
7.328,0.05,-0.0,-0.09,0.1
7.349,-0.01,0.0,-0.07,0.07
7.369,0.02,0.0,0.02,0.02
7.388,-0.02,-0.03,0.01,0.04
7.408,-0.02,-0.02,-0.01,0.03
7.428,-0.01,-0.05,-0.03,0.06
7.448,-0.01,-0.04,-0.05,0.06
7.468,0.0,-0.06,-0.01,0.07
7.488,-0.01,-0.05,-0.01,0.05
7.508,0.02,-0.02,-0.04,0.05
7.528,-0.02,-0.03,-0.02,0.04
7.548,-0.01,-0.02,0.02,0.03
7.568,-0.01,-0.02,0.02,0.03
7.588,0.01,-0.05,-0.03,0.06
7.608,-0.01,-0.02,-0.05,0.05
7.628,0.01,-0.01,-0.06,0.06
7.648,-0.03,-0.03,-0.0,0.04
7.668,-0.0,-0.02,0.02,0.03
7.688,-0.01,-0.04,0.02,0.04
7.708,0.04,-0.05,-0.07,0.1
7.728,0.03,-0.05,-0.07,0.09
7.748,0.0,-0.01,-0.01,0.02
7.768,-0.05,0.0,-0.03,0.06
7.788,-0.02,-0.01,-0.03,0.04
7.808,0.06,-0.02,-0.02,0.07
7.828,-0.03,-0.0,-0.01,0.04
7.848,0.0,-0.05,-0.03,0.06
7.868,-0.02,-0.07,-0.07,0.1
7.888,-0.05,-0.07,-0.0,0.09
7.908,0.0,-0.05,0.03,0.06
7.927,0.01,-0.03,0.03,0.05
7.947,0.02,-0.02,0.0,0.03
7.968,0.02,-0.02,-0.05,0.06
7.988,0.01,-0.02,-0.04,0.05
8.008,0.02,-0.03,-0.06,0.07
8.027,-0.01,-0.01,-0.07,0.07
8.047,0.0,-0.02,-0.03,0.04
8.067,-0.05,-0.02,0.03,0.06
8.087,-0.04,-0.04,0.03,0.06
8.107,-0.0,-0.02,0.02,0.03
8.127,0.04,-0.05,-0.03,0.07
8.147,0.02,-0.02,-0.08,0.08
8.167,0.0,-0.04,-0.05,0.06
8.187,0.03,-0.05,-0.01,0.06
8.207,-0.02,-0.02,0.01,0.03
8.227,-0.02,-0.02,-0.02,0.04
8.247,0.0,-0.02,-0.04,0.05
8.267,0.01,-0.03,-0.04,0.05
8.287,-0.02,-0.04,-0.01,0.04
8.307,0.03,-0.06,-0.03,0.07
8.327,-0.0,-0.04,-0.04,0.06
8.347,-0.0,-0.04,0.0,0.04
8.367,-0.03,-0.05,0.02,0.06
8.387,-0.01,-0.02,-0.03,0.04
8.407,0.0,-0.01,-0.08,0.08
8.427,-0.02,0.0,-0.04,0.04
8.447,0.01,0.01,-0.0,0.02
8.467,0.0,-0.03,-0.02,0.03
8.487,-0.02,-0.05,-0.02,0.06
8.507,-0.02,-0.06,-0.03,0.07
8.527,-0.03,-0.05,-0.01,0.06
8.546,0.01,-0.04,-0.02,0.05
8.567,-0.01,-0.05,-0.03,0.05
8.587,0.03,-0.01,-0.04,0.05
8.607,0.03,-0.01,-0.0,0.03
8.626,0.01,0.01,-0.02,0.03
8.646,0.01,0.0,-0.06,0.06
8.666,-0.02,0.01,-0.1,0.11
8.686,-0.02,0.0,-0.13,0.13
8.706,-0.05,-0.01,-0.09,0.1
8.726,-0.03,-0.04,-0.05,0.07
8.746,-0.04,-0.02,-0.01,0.05
8.766,-0.0,-0.02,0.02,0.03
8.786,0.06,-0.05,0.07,0.1
8.806,-0.01,-0.09,0.11,0.14
8.826,-0.05,-0.1,0.14,0.17
8.846,-0.01,-0.09,0.1,0.14
8.866,-0.03,-0.04,-0.0,0.05
8.886,0.04,-0.05,-0.07,0.09
8.906,0.03,-0.01,-0.04,0.06
8.926,0.05,-0.03,0.03,0.07
8.946,0.02,-0.03,-0.01,0.04
8.966,0.0,-0.0,-0.11,0.11
8.986,-0.01,-0.02,-0.15,0.15
9.006,0.01,-0.02,-0.04,0.05
9.026,-0.01,-0.01,0.01,0.01
9.046,-0.01,-0.0,-0.07,0.07
9.066,-0.04,0.0,-0.15,0.16
9.086,-0.06,0.01,-0.15,0.16
9.106,-0.07,0.02,0.01,0.07
9.126,0.0,-0.06,0.16,0.18
9.146,-0.02,-0.07,0.14,0.16
9.166,-0.02,-0.1,0.11,0.15
9.186,0.02,-0.09,0.05,0.11
9.206,0.03,-0.09,-0.03,0.1
9.226,0.02,-0.0,-0.12,0.13
9.245,0.02,0.03,-0.13,0.13
9.266,0.02,0.04,-0.05,0.06
9.285,0.05,-0.01,0.03,0.06
9.305,0.05,-0.03,0.03,0.06
9.325,0.01,-0.04,-0.02,0.04
9.345,-0.02,-0.01,-0.03,0.04
9.365,-0.02,-0.01,-0.04,0.05
9.385,0.02,-0.08,-0.04,0.09
9.405,0.0,-0.05,0.0,0.05
9.425,-0.02,-0.03,0.02,0.04
9.445,-0.04,-0.02,0.02,0.05
9.465,-0.04,-0.04,-0.03,0.06
9.485,-0.04,-0.01,-0.03,0.05
9.505,-0.04,0.03,-0.03,0.06
9.525,-0.02,-0.01,-0.05,0.06
9.545,-0.05,-0.03,-0.09,0.11
9.565,-0.07,-0.01,-0.05,0.09
9.585,-0.01,-0.04,-0.02,0.05
9.605,0.02,-0.05,-0.04,0.07
9.625,-0.04,-0.01,-0.04,0.06
9.645,0.04,-0.02,0.03,0.06
9.665,0.07,0.0,0.02,0.07
9.685,0.01,-0.08,-0.04,0.09
9.705,0.05,0.0,-0.04,0.06
9.725,0.02,-0.06,-0.05,0.08
9.745,-0.01,-0.05,-0.03,0.07
9.765,-0.02,-0.06,0.04,0.07
9.785,-0.02,-0.12,0.01,0.12
9.805,-0.04,-0.05,-0.09,0.11
9.825,0.0,-0.05,-0.1,0.11
9.845,0.01,-0.04,-0.09,0.1
9.864,0.02,-0.05,-0.09,0.11
9.885,0.01,-0.03,-0.03,0.04
9.904,-0.02,-0.0,0.05,0.05
9.924,-0.02,0.04,-0.02,0.05
9.944,0.01,0.01,-0.08,0.09
9.964,0.02,-0.04,-0.05,0.07
9.984,0.0,-0.06,-0.05,0.08
10.004,0.01,-0.03,-0.04,0.05
10.024,0.01,-0.03,-0.0,0.03
10.044,-0.02,-0.01,0.02,0.03
10.064,0.02,-0.03,-0.03,0.05
10.084,0.01,-0.03,-0.04,0.05
10.104,-0.01,-0.02,-0.05,0.06
10.124,0.0,-0.01,-0.05,0.05
10.144,0.01,-0.02,-0.03,0.03
10.164,-0.02,-0.05,-0.01,0.05
10.184,-0.04,-0.01,-0.02,0.04
10.204,0.0,-0.01,-0.01,0.01
10.224,-0.0,-0.04,0.0,0.04
10.244,-0.02,-0.07,-0.03,0.08
10.264,0.03,-0.1,-0.08,0.13
10.284,-0.01,-0.02,-0.04,0.04
10.304,0.02,-0.01,0.03,0.04
10.324,-0.0,-0.0,0.04,0.04
10.344,0.0,-0.0,-0.02,0.02
10.364,-0.0,-0.02,-0.02,0.03
10.384,0.05,-0.03,-0.0,0.06
10.404,0.01,-0.02,-0.06,0.06
10.424,-0.03,-0.04,-0.16,0.16
10.444,-0.08,-0.02,-0.12,0.15
10.464,-0.04,-0.01,-0.01,0.05
10.484,-0.01,-0.05,0.06,0.08
10.504,-0.02,-0.02,0.04,0.05
10.523,0.01,-0.02,-0.02,0.03
10.544,-0.0,-0.02,-0.06,0.06
10.564,0.0,-0.03,-0.06,0.07
10.583,0.01,-0.05,-0.06,0.08
10.603,-0.01,-0.05,-0.03,0.06
10.623,-0.04,-0.03,0.02,0.05
10.643,-0.01,-0.03,0.05,0.06
10.663,-0.02,-0.03,0.03,0.04
10.683,0.01,-0.05,-0.0,0.05
10.703,-0.0,-0.05,-0.04,0.06
10.723,0.04,-0.03,-0.02,0.05
10.743,0.05,-0.02,-0.06,0.09
10.763,-0.0,0.0,-0.11,0.11
10.783,-0.01,-0.0,-0.1,0.1
10.803,-0.04,-0.0,-0.07,0.08
10.823,-0.05,0.02,0.01,0.05
10.843,-0.02,-0.01,0.07,0.07
10.863,0.0,-0.04,0.04,0.06
10.883,0.02,-0.06,-0.04,0.08
10.903,-0.01,-0.06,-0.08,0.1
10.923,0.08,-0.05,-0.07,0.12
10.943,0.0,0.01,-0.01,0.01
10.963,-0.01,-0.03,0.04,0.05
10.983,-0.02,-0.02,0.02,0.04
11.003,0.03,-0.04,-0.03,0.06
11.023,-0.03,-0.01,-0.05,0.06
11.043,-0.0,-0.03,-0.0,0.03
11.063,0.02,-0.05,-0.05,0.07
11.083,-0.05,-0.03,-0.07,0.09
11.103,0.02,-0.05,-0.03,0.06
11.123,0.05,-0.06,0.03,0.08
11.143,-0.0,-0.02,0.02,0.03
11.163,-0.01,-0.02,-0.03,0.04
11.183,0.02,-0.04,-0.0,0.04
11.202,-0.02,-0.04,-0.02,0.04
11.222,-0.02,-0.02,-0.05,0.06
11.242,0.01,-0.05,-0.02,0.05
11.262,-0.04,-0.03,-0.03,0.06
11.282,-0.04,0.0,-0.0,0.04
11.302,-0.0,-0.04,-0.0,0.04
11.322,-0.02,0.02,-0.02,0.03
11.342,0.04,-0.04,-0.05,0.07
11.362,-0.03,-0.03,-0.03,0.06
11.382,0.02,-0.06,0.0,0.07
11.402,-0.0,-0.06,-0.02,0.06
11.422,0.0,-0.01,0.01,0.01
11.442,-0.02,-0.03,-0.03,0.05
11.462,-0.05,-0.02,-0.01,0.06
11.482,0.0,-0.06,0.05,0.08
11.502,0.04,-0.05,0.07,0.1
11.522,0.06,-0.05,-0.02,0.08
11.542,-0.02,-0.02,-0.14,0.15
11.562,0.01,-0.02,-0.14,0.14
11.582,-0.0,-0.0,-0.1,0.1
11.602,-0.04,0.01,-0.01,0.04
11.622,-0.02,0.01,0.05,0.06
11.642,0.06,0.0,-0.02,0.06
11.662,0.03,0.0,-0.03,0.04
11.682,0.01,-0.03,0.02,0.03
11.702,-0.01,-0.09,0.04,0.09
11.722,-0.02,-0.08,-0.02,0.09
11.741,-0.03,-0.05,-0.02,0.06
11.761,-0.02,-0.06,0.02,0.07
11.782,-0.02,-0.06,0.05,0.08
11.802,-0.01,-0.03,0.01,0.04
11.821,0.01,-0.02,-0.03,0.04
11.841,0.01,-0.01,-0.07,0.07
11.861,0.06,0.01,-0.1,0.12
11.881,-0.04,0.01,-0.11,0.11
11.901,-0.04,-0.0,-0.05,0.07
11.921,-0.01,-0.03,0.03,0.05
11.941,-0.01,-0.06,0.05,0.08
11.961,-0.03,-0.03,0.04,0.06
11.981,0.03,-0.04,-0.02,0.06
12.001,0.02,-0.03,-0.08,0.09
12.021,0.01,-0.04,-0.07,0.08
12.041,-0.0,-0.05,-0.05,0.07
12.061,-0.03,-0.02,0.02,0.04
12.081,0.01,-0.01,0.03,0.04
12.101,0.01,-0.03,-0.01,0.03
12.121,-0.01,-0.03,-0.05,0.06
12.141,0.02,-0.05,-0.04,0.06
12.161,0.01,-0.03,0.01,0.03
12.181,-0.01,-0.02,-0.01,0.03
12.201,-0.01,-0.04,0.01,0.04
12.221,0.01,-0.06,-0.01,0.06
12.241,-0.01,-0.06,-0.07,0.09
12.261,0.01,-0.03,-0.05,0.06
12.281,-0.02,0.0,-0.01,0.02
12.301,-0.02,-0.02,-0.02,0.03
12.321,0.02,-0.02,-0.07,0.07
